onset	duration	startTime	stopTime	eventIdentifier	trial_type	trial_number	block_number	is_practice	fixation_color	cue_side	aoi_correct	aoi_incorrect
0.143	6.0	619519	625560	ShowFixation	ANTI	1	1	True	red	460	[405 885 405 675]	[1035 1515  405  675]
6.184	0.2	625560	625799	BlankScreen	ANTI	1	1	True	red	460	[405 885 405 675]	[1035 1515  405  675]
6.423	1.0	625799	626840	ELCue	ANTI	1	1	True	red	460	[405 885 405 675]	[1035 1515  405  675]
7.867	6.0	627243	633885	ShowFixation	VGS	2	1	True	lime	460	[1035 1515  405  675]	[405 885 405 675]
14.509	0.2	633885	634124	BlankScreen	VGS	2	1	True	lime	460	[1035 1515  405  675]	[405 885 405 675]
14.748	1.0	634124	635164	ELCue	VGS	2	1	True	lime	460	[1035 1515  405  675]	[405 885 405 675]
16.194	2.0	635570	638193	ShowFixation	ANTI	3	1	True	red	40	[1350 1830  405  675]	[ 90 570 405 675]
18.817	0.2	638193	638412	BlankScreen	ANTI	3	1	True	red	40	[1350 1830  405  675]	[ 90 570 405 675]
19.036	1.0	638412	639435	ELCue	ANTI	3	1	True	red	40	[1350 1830  405  675]	[ 90 570 405 675]
20.465	6.0	639841	646481	ShowFixation	VGS	4	1	True	lime	180	[405 885 405 675]	[1035 1515  405  675]
27.105	0.2	646481	646720	BlankScreen	VGS	4	1	True	lime	180	[405 885 405 675]	[1035 1515  405  675]
27.344	1.0	646720	647761	ELCue	VGS	4	1	True	lime	180	[405 885 405 675]	[1035 1515  405  675]
28.782	2.0	648158	650805	ShowFixation	VGS	5	1	True	lime	180	[405 885 405 675]	[1035 1515  405  675]
31.429	0.2	650805	651041	BlankScreen	VGS	5	1	True	lime	180	[405 885 405 675]	[1035 1515  405  675]
31.665	1.0	651041	652082	ELCue	VGS	5	1	True	lime	180	[405 885 405 675]	[1035 1515  405  675]
33.102	2.0	652478	655126	ShowFixation	ANTI	6	1	True	red	460	[405 885 405 675]	[1035 1515  405  675]
35.75	0.2	655126	655362	BlankScreen	ANTI	6	1	True	red	460	[405 885 405 675]	[1035 1515  405  675]
35.986	1.0	655362	656400	ELCue	ANTI	6	1	True	red	460	[405 885 405 675]	[1035 1515  405  675]
37.413	2.0	656789	659414	ShowFixation	ANTI	7	1	True	red	180	[1035 1515  405  675]	[405 885 405 675]
40.038	0.2	659414	659633	BlankScreen	ANTI	7	1	True	red	180	[1035 1515  405  675]	[405 885 405 675]
40.257	1.0	659633	660657	ELCue	ANTI	7	1	True	red	180	[1035 1515  405  675]	[405 885 405 675]
41.681	2.0	661057	663701	ShowFixation	VGS	8	1	True	lime	40	[ 90 570 405 675]	[1350 1830  405  675]
44.325	0.2	663701	663938	BlankScreen	VGS	8	1	True	lime	40	[ 90 570 405 675]	[1350 1830  405  675]
44.562	1.0	663938	664978	ELCue	VGS	8	1	True	lime	40	[ 90 570 405 675]	[1350 1830  405  675]
46.01	6.0	665386	672022	ShowFixation	ANTI	9	1	True	red	180	[1035 1515  405  675]	[405 885 405 675]
52.646	0.2	672022	672262	BlankScreen	ANTI	9	1	True	red	180	[1035 1515  405  675]	[405 885 405 675]
52.886	1.0	672262	673303	ELCue	ANTI	9	1	True	red	180	[1035 1515  405  675]	[405 885 405 675]
54.329	6.0	673705	680347	ShowFixation	ANTI	10	1	True	red	600	[ 90 570 405 675]	[1350 1830  405  675]
60.972	0.2	680348	680587	BlankScreen	ANTI	10	1	True	red	600	[ 90 570 405 675]	[1350 1830  405  675]
61.212	1.0	680588	681627	ELCue	ANTI	10	1	True	red	600	[ 90 570 405 675]	[1350 1830  405  675]
62.657	6.0	682033	688657	ShowFixation	ANTI	11	1	True	red	40	[1350 1830  405  675]	[ 90 570 405 675]
69.281	0.2	688657	688896	BlankScreen	ANTI	11	1	True	red	40	[1350 1830  405  675]	[ 90 570 405 675]
69.52	1.0	688896	689935	ELCue	ANTI	11	1	True	red	40	[1350 1830  405  675]	[ 90 570 405 675]
70.947	2.0	690323	692965	ShowFixation	ANTI	12	1	True	red	600	[ 90 570 405 675]	[1350 1830  405  675]
73.589	0.2	692965	693183	BlankScreen	ANTI	12	1	True	red	600	[ 90 570 405 675]	[1350 1830  405  675]
73.807	1.0	693183	694206	ELCue	ANTI	12	1	True	red	600	[ 90 570 405 675]	[1350 1830  405  675]
75.241	6.0	694617	701252	ShowFixation	VGS	13	1	True	lime	600	[1350 1830  405  675]	[ 90 570 405 675]
81.876	0.2	701252	701492	BlankScreen	VGS	13	1	True	lime	600	[1350 1830  405  675]	[ 90 570 405 675]
82.116	1.0	701492	702532	ELCue	VGS	13	1	True	lime	600	[1350 1830  405  675]	[ 90 570 405 675]
83.555	6.0	702931	709577	ShowFixation	VGS	14	1	True	lime	40	[ 90 570 405 675]	[1350 1830  405  675]
90.201	0.2	709577	709816	BlankScreen	VGS	14	1	True	lime	40	[ 90 570 405 675]	[1350 1830  405  675]
90.44	1.0	709816	710857	ELCue	VGS	14	1	True	lime	40	[ 90 570 405 675]	[1350 1830  405  675]
91.866	2.0	711242	713902	ShowFixation	VGS	15	1	True	lime	460	[1035 1515  405  675]	[405 885 405 675]
94.526	0.2	713902	714137	BlankScreen	VGS	15	1	True	lime	460	[1035 1515  405  675]	[405 885 405 675]
94.761	1.0	714137	715178	ELCue	VGS	15	1	True	lime	460	[1035 1515  405  675]	[405 885 405 675]
96.205	2.0	715581	718223	ShowFixation	VGS	16	1	True	lime	600	[1350 1830  405  675]	[ 90 570 405 675]
98.847	0.2	718223	718458	BlankScreen	VGS	16	1	True	lime	600	[1350 1830  405  675]	[ 90 570 405 675]
99.082	1.0	718458	719498	ELCue	VGS	16	1	True	lime	600	[1350 1830  405  675]	[ 90 570 405 675]
119.14	2.0	738516	740545	ShowFixation	VGS	17	2	False	lime	600	[1350 1830  405  675]	[ 90 570 405 675]
121.169	0.2	740545	740780	BlankScreen	VGS	17	2	False	lime	600	[1350 1830  405  675]	[ 90 570 405 675]
121.404	1.0	740780	741780	ELCue	VGS	17	2	False	lime	600	[1350 1830  405  675]	[ 90 570 405 675]
122.814	6.0	742190	748215	ShowFixation	VGS	18	2	False	lime	40	[ 90 570 405 675]	[1350 1830  405  675]
128.839	0.2	748215	748455	BlankScreen	VGS	18	2	False	lime	40	[ 90 570 405 675]	[1350 1830  405  675]
129.079	1.0	748455	749455	ELCue	VGS	18	2	False	lime	40	[ 90 570 405 675]	[1350 1830  405  675]
130.488	2.0	749864	751890	ShowFixation	VGS	19	2	False	lime	600	[1350 1830  405  675]	[ 90 570 405 675]
132.514	0.2	751890	752125	BlankScreen	VGS	19	2	False	lime	600	[1350 1830  405  675]	[ 90 570 405 675]
132.749	1.0	752125	753125	ELCue	VGS	19	2	False	lime	600	[1350 1830  405  675]	[ 90 570 405 675]
134.156	6.0	753532	759560	ShowFixation	VGS	20	2	False	lime	180	[405 885 405 675]	[1035 1515  405  675]
140.184	0.2	759560	759800	BlankScreen	VGS	20	2	False	lime	180	[405 885 405 675]	[1035 1515  405  675]
140.424	1.0	759800	760800	ELCue	VGS	20	2	False	lime	180	[405 885 405 675]	[1035 1515  405  675]
141.833	2.0	761209	763234	ShowFixation	ANTI	21	2	False	red	600	[ 90 570 405 675]	[1350 1830  405  675]
143.858	0.2	763234	763469	BlankScreen	ANTI	21	2	False	red	600	[ 90 570 405 675]	[1350 1830  405  675]
144.093	1.0	763469	764469	ELCue	ANTI	21	2	False	red	600	[ 90 570 405 675]	[1350 1830  405  675]
145.5	6.0	764876	770904	ShowFixation	VGS	22	2	False	lime	600	[1350 1830  405  675]	[ 90 570 405 675]
151.528	0.2	770904	771144	BlankScreen	VGS	22	2	False	lime	600	[1350 1830  405  675]	[ 90 570 405 675]
151.768	1.0	771144	772144	ELCue	VGS	22	2	False	lime	600	[1350 1830  405  675]	[ 90 570 405 675]
153.177	6.0	772553	778579	ShowFixation	VGS	23	2	False	lime	180	[405 885 405 675]	[1035 1515  405  675]
159.203	0.2	778579	778818	BlankScreen	VGS	23	2	False	lime	180	[405 885 405 675]	[1035 1515  405  675]
159.442	1.0	778818	779818	ELCue	VGS	23	2	False	lime	180	[405 885 405 675]	[1035 1515  405  675]
160.811	2.0	780187	782221	ShowFixation	VGS	24	2	False	lime	180	[405 885 405 675]	[1035 1515  405  675]
162.845	0.2	782221	782455	BlankScreen	VGS	24	2	False	lime	180	[405 885 405 675]	[1035 1515  405  675]
163.079	1.0	782455	783455	ELCue	VGS	24	2	False	lime	180	[405 885 405 675]	[1035 1515  405  675]
164.468	2.0	783844	785873	ShowFixation	ANTI	25	2	False	red	600	[ 90 570 405 675]	[1350 1830  405  675]
166.497	0.2	785873	786108	BlankScreen	ANTI	25	2	False	red	600	[ 90 570 405 675]	[1350 1830  405  675]
166.732	1.0	786108	787108	ELCue	ANTI	25	2	False	red	600	[ 90 570 405 675]	[1350 1830  405  675]
168.141	6.0	787517	793543	ShowFixation	ANTI	26	2	False	red	180	[1035 1515  405  675]	[405 885 405 675]
174.167	0.2	793543	793783	BlankScreen	ANTI	26	2	False	red	180	[1035 1515  405  675]	[405 885 405 675]
174.407	1.0	793783	794783	ELCue	ANTI	26	2	False	red	180	[1035 1515  405  675]	[405 885 405 675]
175.8	2.0	795176	797201	ShowFixation	ANTI	27	2	False	red	40	[1350 1830  405  675]	[ 90 570 405 675]
177.825	0.2	797201	797436	BlankScreen	ANTI	27	2	False	red	40	[1350 1830  405  675]	[ 90 570 405 675]
178.061	1.0	797437	798437	ELCue	ANTI	27	2	False	red	40	[1350 1830  405  675]	[ 90 570 405 675]
179.465	2.0	798841	800871	ShowFixation	ANTI	28	2	False	red	180	[1035 1515  405  675]	[405 885 405 675]
181.496	0.2	800872	801107	BlankScreen	ANTI	28	2	False	red	180	[1035 1515  405  675]	[405 885 405 675]
181.732	1.0	801108	802108	ELCue	ANTI	28	2	False	red	180	[1035 1515  405  675]	[405 885 405 675]
183.122	2.0	802498	804525	ShowFixation	ANTI	29	2	False	red	460	[405 885 405 675]	[1035 1515  405  675]
185.15	0.2	804526	804761	BlankScreen	ANTI	29	2	False	red	460	[405 885 405 675]	[1035 1515  405  675]
185.385	1.0	804761	805761	ELCue	ANTI	29	2	False	red	460	[405 885 405 675]	[1035 1515  405  675]
186.792	6.0	806168	812196	ShowFixation	VGS	30	2	False	lime	40	[ 90 570 405 675]	[1350 1830  405  675]
192.82	0.2	812196	812435	BlankScreen	VGS	30	2	False	lime	40	[ 90 570 405 675]	[1350 1830  405  675]
193.059	1.0	812435	813435	ELCue	VGS	30	2	False	lime	40	[ 90 570 405 675]	[1350 1830  405  675]
194.436	2.0	813812	815837	ShowFixation	VGS	31	2	False	lime	460	[1035 1515  405  675]	[405 885 405 675]
196.461	0.2	815837	816072	BlankScreen	VGS	31	2	False	lime	460	[1035 1515  405  675]	[405 885 405 675]
196.696	1.0	816072	817072	ELCue	VGS	31	2	False	lime	460	[1035 1515  405  675]	[405 885 405 675]
198.107	2.0	817483	819524	ShowFixation	VGS	32	2	False	lime	460	[1035 1515  405  675]	[405 885 405 675]
200.148	0.2	819524	819759	BlankScreen	VGS	32	2	False	lime	460	[1035 1515  405  675]	[405 885 405 675]
200.383	1.0	819759	820759	ELCue	VGS	32	2	False	lime	460	[1035 1515  405  675]	[405 885 405 675]
201.788	6.0	821164	827194	ShowFixation	ANTI	33	2	False	red	600	[ 90 570 405 675]	[1350 1830  405  675]
207.818	0.2	827194	827434	BlankScreen	ANTI	33	2	False	red	600	[ 90 570 405 675]	[1350 1830  405  675]
208.058	1.0	827434	828434	ELCue	ANTI	33	2	False	red	600	[ 90 570 405 675]	[1350 1830  405  675]
209.541	2.0	828917	830952	ShowFixation	VGS	34	2	False	lime	180	[405 885 405 675]	[1035 1515  405  675]
211.576	0.2	830952	831187	BlankScreen	VGS	34	2	False	lime	180	[405 885 405 675]	[1035 1515  405  675]
211.811	1.0	831187	832187	ELCue	VGS	34	2	False	lime	180	[405 885 405 675]	[1035 1515  405  675]
213.219	2.0	832595	834622	ShowFixation	ANTI	35	2	False	red	460	[405 885 405 675]	[1035 1515  405  675]
215.246	0.2	834622	834858	BlankScreen	ANTI	35	2	False	red	460	[405 885 405 675]	[1035 1515  405  675]
215.482	1.0	834858	835858	ELCue	ANTI	35	2	False	red	460	[405 885 405 675]	[1035 1515  405  675]
216.89	2.0	836266	838293	ShowFixation	VGS	36	2	False	lime	40	[ 90 570 405 675]	[1350 1830  405  675]
218.917	0.2	838293	838528	BlankScreen	VGS	36	2	False	lime	40	[ 90 570 405 675]	[1350 1830  405  675]
219.152	1.0	838528	839528	ELCue	VGS	36	2	False	lime	40	[ 90 570 405 675]	[1350 1830  405  675]
220.562	2.0	839938	841963	ShowFixation	VGS	37	2	False	lime	40	[ 90 570 405 675]	[1350 1830  405  675]
222.587	0.2	841963	842198	BlankScreen	VGS	37	2	False	lime	40	[ 90 570 405 675]	[1350 1830  405  675]
222.822	1.0	842198	843198	ELCue	VGS	37	2	False	lime	40	[ 90 570 405 675]	[1350 1830  405  675]
224.227	6.0	843603	849633	ShowFixation	ANTI	38	2	False	red	180	[1035 1515  405  675]	[405 885 405 675]
230.257	0.2	849633	849872	BlankScreen	ANTI	38	2	False	red	180	[1035 1515  405  675]	[405 885 405 675]
230.496	1.0	849872	850872	ELCue	ANTI	38	2	False	red	180	[1035 1515  405  675]	[405 885 405 675]
231.905	2.0	851281	853307	ShowFixation	ANTI	39	2	False	red	40	[1350 1830  405  675]	[ 90 570 405 675]
233.931	0.2	853307	853543	BlankScreen	ANTI	39	2	False	red	40	[1350 1830  405  675]	[ 90 570 405 675]
234.167	1.0	853543	854543	ELCue	ANTI	39	2	False	red	40	[1350 1830  405  675]	[ 90 570 405 675]
235.574	6.0	854950	860978	ShowFixation	ANTI	40	2	False	red	600	[ 90 570 405 675]	[1350 1830  405  675]
241.602	0.2	860978	861217	BlankScreen	ANTI	40	2	False	red	600	[ 90 570 405 675]	[1350 1830  405  675]
241.841	1.0	861217	862217	ELCue	ANTI	40	2	False	red	600	[ 90 570 405 675]	[1350 1830  405  675]
243.253	6.0	862629	868669	ShowFixation	ANTI	41	2	False	red	40	[1350 1830  405  675]	[ 90 570 405 675]
249.293	0.2	868669	868908	BlankScreen	ANTI	41	2	False	red	40	[1350 1830  405  675]	[ 90 570 405 675]
249.532	1.0	868908	869908	ELCue	ANTI	41	2	False	red	40	[1350 1830  405  675]	[ 90 570 405 675]
250.94	6.0	870316	876343	ShowFixation	VGS	42	2	False	lime	460	[1035 1515  405  675]	[405 885 405 675]
256.967	0.2	876343	876582	BlankScreen	VGS	42	2	False	lime	460	[1035 1515  405  675]	[405 885 405 675]
257.206	1.0	876582	877582	ELCue	VGS	42	2	False	lime	460	[1035 1515  405  675]	[405 885 405 675]
258.609	6.0	877985	884017	ShowFixation	ANTI	43	2	False	red	460	[405 885 405 675]	[1035 1515  405  675]
264.641	0.2	884017	884256	BlankScreen	ANTI	43	2	False	red	460	[405 885 405 675]	[1035 1515  405  675]
264.88	1.0	884256	885256	ELCue	ANTI	43	2	False	red	460	[405 885 405 675]	[1035 1515  405  675]
266.253	6.0	885629	891658	ShowFixation	VGS	44	2	False	lime	600	[1350 1830  405  675]	[ 90 570 405 675]
272.282	0.2	891658	891897	BlankScreen	VGS	44	2	False	lime	600	[1350 1830  405  675]	[ 90 570 405 675]
272.521	1.0	891897	892897	ELCue	VGS	44	2	False	lime	600	[1350 1830  405  675]	[ 90 570 405 675]
273.933	2.0	893309	895349	ShowFixation	ANTI	45	2	False	red	180	[1035 1515  405  675]	[405 885 405 675]
275.973	0.2	895349	895584	BlankScreen	ANTI	45	2	False	red	180	[1035 1515  405  675]	[405 885 405 675]
276.208	1.0	895584	896584	ELCue	ANTI	45	2	False	red	180	[1035 1515  405  675]	[405 885 405 675]
277.615	6.0	896991	903019	ShowFixation	ANTI	46	2	False	red	460	[405 885 405 675]	[1035 1515  405  675]
283.643	0.2	903019	903259	BlankScreen	ANTI	46	2	False	red	460	[405 885 405 675]	[1035 1515  405  675]
283.883	1.0	903259	904259	ELCue	ANTI	46	2	False	red	460	[405 885 405 675]	[1035 1515  405  675]
285.271	6.0	904647	910677	ShowFixation	VGS	47	2	False	lime	460	[1035 1515  405  675]	[405 885 405 675]
291.301	0.2	910677	910916	BlankScreen	VGS	47	2	False	lime	460	[1035 1515  405  675]	[405 885 405 675]
291.54	1.0	910916	911916	ELCue	VGS	47	2	False	lime	460	[1035 1515  405  675]	[405 885 405 675]
292.949	6.0	912325	918352	ShowFixation	ANTI	48	2	False	red	40	[1350 1830  405  675]	[ 90 570 405 675]
298.976	0.2	918352	918590	BlankScreen	ANTI	48	2	False	red	40	[1350 1830  405  675]	[ 90 570 405 675]
299.214	1.0	918590	919590	ELCue	ANTI	48	2	False	red	40	[1350 1830  405  675]	[ 90 570 405 675]
328.831	6.0	948207	954238	ShowFixation	VGS	49	3	False	lime	40	[ 90 570 405 675]	[1350 1830  405  675]
334.862	0.2	954238	954477	BlankScreen	VGS	49	3	False	lime	40	[ 90 570 405 675]	[1350 1830  405  675]
335.101	1.0	954477	955477	ELCue	VGS	49	3	False	lime	40	[ 90 570 405 675]	[1350 1830  405  675]
336.509	2.0	955885	957912	ShowFixation	ANTI	50	3	False	red	180	[1035 1515  405  675]	[405 885 405 675]
338.536	0.2	957912	958147	BlankScreen	ANTI	50	3	False	red	180	[1035 1515  405  675]	[405 885 405 675]
338.771	1.0	958147	959147	ELCue	ANTI	50	3	False	red	180	[1035 1515  405  675]	[405 885 405 675]
340.182	6.0	959558	965599	ShowFixation	VGS	51	3	False	lime	180	[405 885 405 675]	[1035 1515  405  675]
346.223	0.2	965599	965838	BlankScreen	VGS	51	3	False	lime	180	[405 885 405 675]	[1035 1515  405  675]
346.462	1.0	965838	966838	ELCue	VGS	51	3	False	lime	180	[405 885 405 675]	[1035 1515  405  675]
347.867	2.0	967243	969273	ShowFixation	VGS	52	3	False	lime	180	[405 885 405 675]	[1035 1515  405  675]
349.897	0.2	969273	969508	BlankScreen	VGS	52	3	False	lime	180	[405 885 405 675]	[1035 1515  405  675]
350.132	1.0	969508	970508	ELCue	VGS	52	3	False	lime	180	[405 885 405 675]	[1035 1515  405  675]
351.54	2.0	970916	972943	ShowFixation	VGS	53	3	False	lime	460	[1035 1515  405  675]	[405 885 405 675]
353.567	0.2	972943	973179	BlankScreen	VGS	53	3	False	lime	460	[1035 1515  405  675]	[405 885 405 675]
353.803	1.0	973179	974179	ELCue	VGS	53	3	False	lime	460	[1035 1515  405  675]	[405 885 405 675]
355.209	6.0	974585	980614	ShowFixation	VGS	54	3	False	lime	600	[1350 1830  405  675]	[ 90 570 405 675]
361.238	0.2	980614	980853	BlankScreen	VGS	54	3	False	lime	600	[1350 1830  405  675]	[ 90 570 405 675]
361.477	1.0	980853	981853	ELCue	VGS	54	3	False	lime	600	[1350 1830  405  675]	[ 90 570 405 675]
362.888	2.0	982264	984305	ShowFixation	ANTI	55	3	False	red	460	[405 885 405 675]	[1035 1515  405  675]
364.929	0.2	984305	984540	BlankScreen	ANTI	55	3	False	red	460	[405 885 405 675]	[1035 1515  405  675]
365.164	1.0	984540	985540	ELCue	ANTI	55	3	False	red	460	[405 885 405 675]	[1035 1515  405  675]
366.569	6.0	985945	991975	ShowFixation	ANTI	56	3	False	red	600	[ 90 570 405 675]	[1350 1830  405  675]
372.599	0.2	991975	992214	BlankScreen	ANTI	56	3	False	red	600	[ 90 570 405 675]	[1350 1830  405  675]
372.838	1.0	992214	993214	ELCue	ANTI	56	3	False	red	600	[ 90 570 405 675]	[1350 1830  405  675]
374.249	6.0	993625	999666	ShowFixation	VGS	57	3	False	lime	460	[1035 1515  405  675]	[405 885 405 675]
380.29	0.2	999666	999905	BlankScreen	VGS	57	3	False	lime	460	[1035 1515  405  675]	[405 885 405 675]
380.529	1.0	999905	1000905	ELCue	VGS	57	3	False	lime	460	[1035 1515  405  675]	[405 885 405 675]
381.937	6.0	1001313	1007340	ShowFixation	VGS	58	3	False	lime	600	[1350 1830  405  675]	[ 90 570 405 675]
387.964	0.2	1007340	1007579	BlankScreen	VGS	58	3	False	lime	600	[1350 1830  405  675]	[ 90 570 405 675]
388.203	1.0	1007579	1008579	ELCue	VGS	58	3	False	lime	600	[1350 1830  405  675]	[ 90 570 405 675]
389.617	6.0	1008993	1015031	ShowFixation	ANTI	59	3	False	red	180	[1035 1515  405  675]	[405 885 405 675]
395.655	0.2	1015031	1015270	BlankScreen	ANTI	59	3	False	red	180	[1035 1515  405  675]	[405 885 405 675]
395.894	1.0	1015270	1016270	ELCue	ANTI	59	3	False	red	180	[1035 1515  405  675]	[405 885 405 675]
397.304	2.0	1016680	1018705	ShowFixation	VGS	60	3	False	lime	600	[1350 1830  405  675]	[ 90 570 405 675]
399.329	0.2	1018705	1018940	BlankScreen	VGS	60	3	False	lime	600	[1350 1830  405  675]	[ 90 570 405 675]
399.564	1.0	1018940	1019940	ELCue	VGS	60	3	False	lime	600	[1350 1830  405  675]	[ 90 570 405 675]
401.004	2.0	1020380	1022409	ShowFixation	ANTI	61	3	False	red	600	[ 90 570 405 675]	[1350 1830  405  675]
403.033	0.2	1022409	1022644	BlankScreen	ANTI	61	3	False	red	600	[ 90 570 405 675]	[1350 1830  405  675]
403.268	1.0	1022644	1023644	ELCue	ANTI	61	3	False	red	600	[ 90 570 405 675]	[1350 1830  405  675]
404.653	2.0	1024029	1026062	ShowFixation	ANTI	62	3	False	red	600	[ 90 570 405 675]	[1350 1830  405  675]
406.686	0.2	1026062	1026298	BlankScreen	ANTI	62	3	False	red	600	[ 90 570 405 675]	[1350 1830  405  675]
406.922	1.0	1026298	1027298	ELCue	ANTI	62	3	False	red	600	[ 90 570 405 675]	[1350 1830  405  675]
408.333	6.0	1027709	1033749	ShowFixation	VGS	63	3	False	lime	460	[1035 1515  405  675]	[405 885 405 675]
414.373	0.2	1033749	1033989	BlankScreen	VGS	63	3	False	lime	460	[1035 1515  405  675]	[405 885 405 675]
414.613	1.0	1033989	1034989	ELCue	VGS	63	3	False	lime	460	[1035 1515  405  675]	[405 885 405 675]
416.022	2.0	1035398	1037424	ShowFixation	VGS	64	3	False	lime	40	[ 90 570 405 675]	[1350 1830  405  675]
418.049	0.2	1037425	1037659	BlankScreen	VGS	64	3	False	lime	40	[ 90 570 405 675]	[1350 1830  405  675]
418.283	1.0	1037659	1038659	ELCue	VGS	64	3	False	lime	40	[ 90 570 405 675]	[1350 1830  405  675]
419.688	2.0	1039064	1041094	ShowFixation	ANTI	65	3	False	red	40	[1350 1830  405  675]	[ 90 570 405 675]
421.718	0.2	1041094	1041329	BlankScreen	ANTI	65	3	False	red	40	[1350 1830  405  675]	[ 90 570 405 675]
421.953	1.0	1041329	1042329	ELCue	ANTI	65	3	False	red	40	[1350 1830  405  675]	[ 90 570 405 675]
423.338	2.0	1042714	1044749	ShowFixation	VGS	66	3	False	lime	460	[1035 1515  405  675]	[405 885 405 675]
425.373	0.2	1044749	1044984	BlankScreen	VGS	66	3	False	lime	460	[1035 1515  405  675]	[405 885 405 675]
425.608	1.0	1044984	1045984	ELCue	VGS	66	3	False	lime	460	[1035 1515  405  675]	[405 885 405 675]
427.016	6.0	1046392	1052419	ShowFixation	ANTI	67	3	False	red	460	[405 885 405 675]	[1035 1515  405  675]
433.043	0.2	1052419	1052658	BlankScreen	ANTI	67	3	False	red	460	[405 885 405 675]	[1035 1515  405  675]
433.282	1.0	1052658	1053658	ELCue	ANTI	67	3	False	red	460	[405 885 405 675]	[1035 1515  405  675]
434.692	6.0	1054068	1060093	ShowFixation	ANTI	68	3	False	red	180	[1035 1515  405  675]	[405 885 405 675]
440.717	0.2	1060093	1060332	BlankScreen	ANTI	68	3	False	red	180	[1035 1515  405  675]	[405 885 405 675]
440.956	1.0	1060332	1061332	ELCue	ANTI	68	3	False	red	180	[1035 1515  405  675]	[405 885 405 675]
442.36	6.0	1061736	1067767	ShowFixation	VGS	69	3	False	lime	180	[405 885 405 675]	[1035 1515  405  675]
448.391	0.2	1067767	1068007	BlankScreen	VGS	69	3	False	lime	180	[405 885 405 675]	[1035 1515  405  675]
448.631	1.0	1068007	1069007	ELCue	VGS	69	3	False	lime	180	[405 885 405 675]	[1035 1515  405  675]
450.038	6.0	1069414	1075442	ShowFixation	ANTI	70	3	False	red	460	[405 885 405 675]	[1035 1515  405  675]
456.066	0.2	1075442	1075681	BlankScreen	ANTI	70	3	False	red	460	[405 885 405 675]	[1035 1515  405  675]
456.305	1.0	1075681	1076681	ELCue	ANTI	70	3	False	red	460	[405 885 405 675]	[1035 1515  405  675]
457.711	2.0	1077087	1079116	ShowFixation	ANTI	71	3	False	red	460	[405 885 405 675]	[1035 1515  405  675]
459.74	0.2	1079116	1079351	BlankScreen	ANTI	71	3	False	red	460	[405 885 405 675]	[1035 1515  405  675]
459.975	1.0	1079351	1080351	ELCue	ANTI	71	3	False	red	460	[405 885 405 675]	[1035 1515  405  675]
461.435	6.0	1080811	1086836	ShowFixation	VGS	72	3	False	lime	40	[ 90 570 405 675]	[1350 1830  405  675]
467.46	0.2	1086836	1087075	BlankScreen	VGS	72	3	False	lime	40	[ 90 570 405 675]	[1350 1830  405  675]
467.699	1.0	1087075	1088075	ELCue	VGS	72	3	False	lime	40	[ 90 570 405 675]	[1350 1830  405  675]
469.104	2.0	1088480	1090510	ShowFixation	VGS	73	3	False	lime	180	[405 885 405 675]	[1035 1515  405  675]
471.134	0.2	1090510	1090746	BlankScreen	VGS	73	3	False	lime	180	[405 885 405 675]	[1035 1515  405  675]
471.37	1.0	1090746	1091746	ELCue	VGS	73	3	False	lime	180	[405 885 405 675]	[1035 1515  405  675]
472.746	2.0	1092122	1094147	ShowFixation	VGS	74	3	False	lime	600	[1350 1830  405  675]	[ 90 570 405 675]
474.771	0.2	1094147	1094383	BlankScreen	VGS	74	3	False	lime	600	[1350 1830  405  675]	[ 90 570 405 675]
475.007	1.0	1094383	1095383	ELCue	VGS	74	3	False	lime	600	[1350 1830  405  675]	[ 90 570 405 675]
476.417	2.0	1095793	1097834	ShowFixation	VGS	75	3	False	lime	40	[ 90 570 405 675]	[1350 1830  405  675]
478.458	0.2	1097834	1098070	BlankScreen	VGS	75	3	False	lime	40	[ 90 570 405 675]	[1350 1830  405  675]
478.694	1.0	1098070	1099070	ELCue	VGS	75	3	False	lime	40	[ 90 570 405 675]	[1350 1830  405  675]
480.106	6.0	1099482	1105521	ShowFixation	ANTI	76	3	False	red	600	[ 90 570 405 675]	[1350 1830  405  675]
486.145	0.2	1105521	1105761	BlankScreen	ANTI	76	3	False	red	600	[ 90 570 405 675]	[1350 1830  405  675]
486.385	1.0	1105761	1106761	ELCue	ANTI	76	3	False	red	600	[ 90 570 405 675]	[1350 1830  405  675]
487.796	6.0	1107172	1113212	ShowFixation	ANTI	77	3	False	red	40	[1350 1830  405  675]	[ 90 570 405 675]
493.836	0.2	1113212	1113451	BlankScreen	ANTI	77	3	False	red	40	[1350 1830  405  675]	[ 90 570 405 675]
494.075	1.0	1113451	1114451	ELCue	ANTI	77	3	False	red	40	[1350 1830  405  675]	[ 90 570 405 675]
495.485	2.0	1114861	1116886	ShowFixation	ANTI	78	3	False	red	40	[1350 1830  405  675]	[ 90 570 405 675]
497.51	0.2	1116886	1117122	BlankScreen	ANTI	78	3	False	red	40	[1350 1830  405  675]	[ 90 570 405 675]
497.746	1.0	1117122	1118122	ELCue	ANTI	78	3	False	red	40	[1350 1830  405  675]	[ 90 570 405 675]
499.15	6.0	1118526	1124557	ShowFixation	ANTI	79	3	False	red	40	[1350 1830  405  675]	[ 90 570 405 675]
505.181	0.2	1124557	1124796	BlankScreen	ANTI	79	3	False	red	40	[1350 1830  405  675]	[ 90 570 405 675]
505.42	1.0	1124796	1125796	ELCue	ANTI	79	3	False	red	40	[1350 1830  405  675]	[ 90 570 405 675]
506.832	2.0	1126208	1128248	ShowFixation	ANTI	80	3	False	red	180	[1035 1515  405  675]	[405 885 405 675]
508.872	0.2	1128248	1128483	BlankScreen	ANTI	80	3	False	red	180	[1035 1515  405  675]	[405 885 405 675]
509.107	1.0	1128483	1129483	ELCue	ANTI	80	3	False	red	180	[1035 1515  405  675]	[405 885 405 675]
555.862	6.0	1175238	1181264	ShowFixation	ANTI	81	4	False	red	180	[1035 1515  405  675]	[405 885 405 675]
561.888	0.2	1181264	1181503	BlankScreen	ANTI	81	4	False	red	180	[1035 1515  405  675]	[405 885 405 675]
562.127	1.0	1181503	1182503	ELCue	ANTI	81	4	False	red	180	[1035 1515  405  675]	[405 885 405 675]
563.536	6.0	1182912	1188938	ShowFixation	VGS	82	4	False	lime	460	[1035 1515  405  675]	[405 885 405 675]
569.562	0.2	1188938	1189177	BlankScreen	VGS	82	4	False	lime	460	[1035 1515  405  675]	[405 885 405 675]
569.801	1.0	1189177	1190177	ELCue	VGS	82	4	False	lime	460	[1035 1515  405  675]	[405 885 405 675]
571.217	6.0	1190593	1196629	ShowFixation	VGS	83	4	False	lime	180	[405 885 405 675]	[1035 1515  405  675]
577.253	0.2	1196629	1196868	BlankScreen	VGS	83	4	False	lime	180	[405 885 405 675]	[1035 1515  405  675]
577.492	1.0	1196868	1197868	ELCue	VGS	83	4	False	lime	180	[405 885 405 675]	[1035 1515  405  675]
578.906	2.0	1198282	1200320	ShowFixation	VGS	84	4	False	lime	600	[1350 1830  405  675]	[ 90 570 405 675]
580.944	0.2	1200320	1200555	BlankScreen	VGS	84	4	False	lime	600	[1350 1830  405  675]	[ 90 570 405 675]
581.179	1.0	1200555	1201555	ELCue	VGS	84	4	False	lime	600	[1350 1830  405  675]	[ 90 570 405 675]
582.584	6.0	1201960	1207990	ShowFixation	ANTI	85	4	False	red	460	[405 885 405 675]	[1035 1515  405  675]
588.614	0.2	1207990	1208229	BlankScreen	ANTI	85	4	False	red	460	[405 885 405 675]	[1035 1515  405  675]
588.853	1.0	1208229	1209229	ELCue	ANTI	85	4	False	red	460	[405 885 405 675]	[1035 1515  405  675]
590.246	6.0	1209622	1215648	ShowFixation	ANTI	86	4	False	red	40	[1350 1830  405  675]	[ 90 570 405 675]
596.272	0.2	1215648	1215887	BlankScreen	ANTI	86	4	False	red	40	[1350 1830  405  675]	[ 90 570 405 675]
596.511	1.0	1215887	1216887	ELCue	ANTI	86	4	False	red	40	[1350 1830  405  675]	[ 90 570 405 675]
597.883	6.0	1217259	1223289	ShowFixation	ANTI	87	4	False	red	600	[ 90 570 405 675]	[1350 1830  405  675]
603.913	0.2	1223289	1223528	BlankScreen	ANTI	87	4	False	red	600	[ 90 570 405 675]	[1350 1830  405  675]
604.152	1.0	1223528	1224528	ELCue	ANTI	87	4	False	red	600	[ 90 570 405 675]	[1350 1830  405  675]
605.525	6.0	1224901	1230929	ShowFixation	VGS	88	4	False	lime	180	[405 885 405 675]	[1035 1515  405  675]
611.553	0.2	1230929	1231169	BlankScreen	VGS	88	4	False	lime	180	[405 885 405 675]	[1035 1515  405  675]
611.793	1.0	1231169	1232169	ELCue	VGS	88	4	False	lime	180	[405 885 405 675]	[1035 1515  405  675]
613.2	2.0	1232576	1234604	ShowFixation	VGS	89	4	False	lime	40	[ 90 570 405 675]	[1350 1830  405  675]
615.228	0.2	1234604	1234839	BlankScreen	VGS	89	4	False	lime	40	[ 90 570 405 675]	[1350 1830  405  675]
615.463	1.0	1234839	1235839	ELCue	VGS	89	4	False	lime	40	[ 90 570 405 675]	[1350 1830  405  675]
616.853	6.0	1236229	1242257	ShowFixation	VGS	90	4	False	lime	40	[ 90 570 405 675]	[1350 1830  405  675]
622.881	0.2	1242257	1242497	BlankScreen	VGS	90	4	False	lime	40	[ 90 570 405 675]	[1350 1830  405  675]
623.121	1.0	1242497	1243497	ELCue	VGS	90	4	False	lime	40	[ 90 570 405 675]	[1350 1830  405  675]
624.527	6.0	1243903	1249932	ShowFixation	ANTI	91	4	False	red	460	[405 885 405 675]	[1035 1515  405  675]
630.556	0.2	1249932	1250171	BlankScreen	ANTI	91	4	False	red	460	[405 885 405 675]	[1035 1515  405  675]
630.795	1.0	1250171	1251171	ELCue	ANTI	91	4	False	red	460	[405 885 405 675]	[1035 1515  405  675]
632.183	6.0	1251559	1257589	ShowFixation	VGS	92	4	False	lime	460	[1035 1515  405  675]	[405 885 405 675]
638.213	0.2	1257589	1257828	BlankScreen	VGS	92	4	False	lime	460	[1035 1515  405  675]	[405 885 405 675]
638.452	1.0	1257828	1258828	ELCue	VGS	92	4	False	lime	460	[1035 1515  405  675]	[405 885 405 675]
639.843	6.0	1259219	1265247	ShowFixation	VGS	93	4	False	lime	40	[ 90 570 405 675]	[1350 1830  405  675]
645.871	0.2	1265247	1265486	BlankScreen	VGS	93	4	False	lime	40	[ 90 570 405 675]	[1350 1830  405  675]
646.11	1.0	1265486	1266486	ELCue	VGS	93	4	False	lime	40	[ 90 570 405 675]	[1350 1830  405  675]
647.513	2.0	1266889	1268921	ShowFixation	VGS	94	4	False	lime	460	[1035 1515  405  675]	[405 885 405 675]
649.545	0.2	1268921	1269156	BlankScreen	VGS	94	4	False	lime	460	[1035 1515  405  675]	[405 885 405 675]
649.78	1.0	1269156	1270156	ELCue	VGS	94	4	False	lime	460	[1035 1515  405  675]	[405 885 405 675]
651.19	2.0	1270566	1272591	ShowFixation	ANTI	95	4	False	red	40	[1350 1830  405  675]	[ 90 570 405 675]
653.215	0.2	1272591	1272827	BlankScreen	ANTI	95	4	False	red	40	[1350 1830  405  675]	[ 90 570 405 675]
653.451	1.0	1272827	1273827	ELCue	ANTI	95	4	False	red	40	[1350 1830  405  675]	[ 90 570 405 675]
654.859	2.0	1274235	1276262	ShowFixation	VGS	96	4	False	lime	180	[405 885 405 675]	[1035 1515  405  675]
656.886	0.2	1276262	1276497	BlankScreen	VGS	96	4	False	lime	180	[405 885 405 675]	[1035 1515  405  675]
657.121	1.0	1276497	1277497	ELCue	VGS	96	4	False	lime	180	[405 885 405 675]	[1035 1515  405  675]
658.534	2.0	1277910	1279949	ShowFixation	ANTI	97	4	False	red	180	[1035 1515  405  675]	[405 885 405 675]
660.573	0.2	1279949	1280184	BlankScreen	ANTI	97	4	False	red	180	[1035 1515  405  675]	[405 885 405 675]
660.808	1.0	1280184	1281184	ELCue	ANTI	97	4	False	red	180	[1035 1515  405  675]	[405 885 405 675]
662.196	2.0	1281572	1283602	ShowFixation	ANTI	98	4	False	red	460	[405 885 405 675]	[1035 1515  405  675]
664.227	0.2	1283603	1283838	BlankScreen	ANTI	98	4	False	red	460	[405 885 405 675]	[1035 1515  405  675]
664.463	1.0	1283839	1284839	ELCue	ANTI	98	4	False	red	460	[405 885 405 675]	[1035 1515  405  675]
665.872	6.0	1285248	1291273	ShowFixation	VGS	99	4	False	lime	600	[1350 1830  405  675]	[ 90 570 405 675]
671.897	0.2	1291273	1291513	BlankScreen	VGS	99	4	False	lime	600	[1350 1830  405  675]	[ 90 570 405 675]
672.137	1.0	1291513	1292513	ELCue	VGS	99	4	False	lime	600	[1350 1830  405  675]	[ 90 570 405 675]
673.538	6.0	1292914	1298948	ShowFixation	VGS	100	4	False	lime	600	[1350 1830  405  675]	[ 90 570 405 675]
679.572	0.2	1298948	1299187	BlankScreen	VGS	100	4	False	lime	600	[1350 1830  405  675]	[ 90 570 405 675]
679.811	1.0	1299187	1300187	ELCue	VGS	100	4	False	lime	600	[1350 1830  405  675]	[ 90 570 405 675]
681.204	2.0	1300580	1302605	ShowFixation	ANTI	101	4	False	red	180	[1035 1515  405  675]	[405 885 405 675]
683.229	0.2	1302605	1302841	BlankScreen	ANTI	101	4	False	red	180	[1035 1515  405  675]	[405 885 405 675]
683.465	1.0	1302841	1303841	ELCue	ANTI	101	4	False	red	180	[1035 1515  405  675]	[405 885 405 675]
684.873	2.0	1304249	1306276	ShowFixation	ANTI	102	4	False	red	40	[1350 1830  405  675]	[ 90 570 405 675]
686.9	0.2	1306276	1306511	BlankScreen	ANTI	102	4	False	red	40	[1350 1830  405  675]	[ 90 570 405 675]
687.135	1.0	1306511	1307511	ELCue	ANTI	102	4	False	red	40	[1350 1830  405  675]	[ 90 570 405 675]
688.525	2.0	1307901	1309929	ShowFixation	VGS	103	4	False	lime	460	[1035 1515  405  675]	[405 885 405 675]
690.553	0.2	1309929	1310165	BlankScreen	VGS	103	4	False	lime	460	[1035 1515  405  675]	[405 885 405 675]
690.789	1.0	1310165	1311165	ELCue	VGS	103	4	False	lime	460	[1035 1515  405  675]	[405 885 405 675]
692.197	6.0	1311573	1317599	ShowFixation	ANTI	104	4	False	red	600	[ 90 570 405 675]	[1350 1830  405  675]
698.223	0.2	1317599	1317839	BlankScreen	ANTI	104	4	False	red	600	[ 90 570 405 675]	[1350 1830  405  675]
698.463	1.0	1317839	1318839	ELCue	ANTI	104	4	False	red	600	[ 90 570 405 675]	[1350 1830  405  675]
699.867	2.0	1319243	1321274	ShowFixation	VGS	105	4	False	lime	40	[ 90 570 405 675]	[1350 1830  405  675]
701.898	0.2	1321274	1321509	BlankScreen	VGS	105	4	False	lime	40	[ 90 570 405 675]	[1350 1830  405  675]
702.133	1.0	1321509	1322509	ELCue	VGS	105	4	False	lime	40	[ 90 570 405 675]	[1350 1830  405  675]
703.608	2.0	1322984	1325011	ShowFixation	ANTI	106	4	False	red	600	[ 90 570 405 675]	[1350 1830  405  675]
705.635	0.2	1325011	1325246	BlankScreen	ANTI	106	4	False	red	600	[ 90 570 405 675]	[1350 1830  405  675]
705.87	1.0	1325246	1326246	ELCue	ANTI	106	4	False	red	600	[ 90 570 405 675]	[1350 1830  405  675]
707.281	2.0	1326657	1328698	ShowFixation	VGS	107	4	False	lime	600	[1350 1830  405  675]	[ 90 570 405 675]
709.322	0.2	1328698	1328933	BlankScreen	VGS	107	4	False	lime	600	[1350 1830  405  675]	[ 90 570 405 675]
709.557	1.0	1328933	1329933	ELCue	VGS	107	4	False	lime	600	[1350 1830  405  675]	[ 90 570 405 675]
710.967	2.0	1330343	1332368	ShowFixation	ANTI	108	4	False	red	460	[405 885 405 675]	[1035 1515  405  675]
712.992	0.2	1332368	1332603	BlankScreen	ANTI	108	4	False	red	460	[405 885 405 675]	[1035 1515  405  675]
713.227	1.0	1332603	1333603	ELCue	ANTI	108	4	False	red	460	[405 885 405 675]	[1035 1515  405  675]
714.637	2.0	1334013	1336038	ShowFixation	ANTI	109	4	False	red	600	[ 90 570 405 675]	[1350 1830  405  675]
716.662	0.2	1336038	1336274	BlankScreen	ANTI	109	4	False	red	600	[ 90 570 405 675]	[1350 1830  405  675]
716.898	1.0	1336274	1337274	ELCue	ANTI	109	4	False	red	600	[ 90 570 405 675]	[1350 1830  405  675]
718.289	6.0	1337665	1343692	ShowFixation	ANTI	110	4	False	red	180	[1035 1515  405  675]	[405 885 405 675]
724.316	0.2	1343692	1343931	BlankScreen	ANTI	110	4	False	red	180	[1035 1515  405  675]	[405 885 405 675]
724.555	1.0	1343931	1344931	ELCue	ANTI	110	4	False	red	180	[1035 1515  405  675]	[405 885 405 675]
725.965	2.0	1345341	1347366	ShowFixation	VGS	111	4	False	lime	180	[405 885 405 675]	[1035 1515  405  675]
727.99	0.2	1347366	1347601	BlankScreen	VGS	111	4	False	lime	180	[405 885 405 675]	[1035 1515  405  675]
728.225	1.0	1347601	1348601	ELCue	VGS	111	4	False	lime	180	[405 885 405 675]	[1035 1515  405  675]
729.633	6.0	1349009	1355036	ShowFixation	ANTI	112	4	False	red	40	[1350 1830  405  675]	[ 90 570 405 675]
735.66	0.2	1355036	1355276	BlankScreen	ANTI	112	4	False	red	40	[1350 1830  405  675]	[ 90 570 405 675]
735.9	1.0	1355276	1356276	ELCue	ANTI	112	4	False	red	40	[1350 1830  405  675]	[ 90 570 405 675]
