onset	duration	startTime	stopTime	eventIdentifier	trial_type	trial_number	block_number	is_practice	fixation_color	cue_side	aoi_correct	aoi_incorrect
0.148	6.0	1995220	2001249	ShowFixation	ANTI	1	1	True	red	460	[405 885 405 675]	[1035 1515  405  675]
6.177	0.2	2001249	2001489	BlankScreen	ANTI	1	1	True	red	460	[405 885 405 675]	[1035 1515  405  675]
6.417	1.0	2001489	2002530	ELCue	ANTI	1	1	True	red	460	[405 885 405 675]	[1035 1515  405  675]
7.874	6.0	2002946	2009574	ShowFixation	VGS	2	1	True	lime	180	[405 885 405 675]	[1035 1515  405  675]
14.502	0.2	2009574	2009814	BlankScreen	VGS	2	1	True	lime	180	[405 885 405 675]	[1035 1515  405  675]
14.742	1.0	2009814	2010855	ELCue	VGS	2	1	True	lime	180	[405 885 405 675]	[1035 1515  405  675]
16.199	6.0	2011271	2017899	ShowFixation	ANTI	3	1	True	red	180	[1035 1515  405  675]	[405 885 405 675]
22.827	0.2	2017899	2018139	BlankScreen	ANTI	3	1	True	red	180	[1035 1515  405  675]	[405 885 405 675]
23.067	1.0	2018139	2019196	ELCue	ANTI	3	1	True	red	180	[1035 1515  405  675]	[405 885 405 675]
24.54	6.0	2019612	2026242	ShowFixation	VGS	4	1	True	lime	40	[ 90 570 405 675]	[1350 1830  405  675]
31.17	0.2	2026242	2026481	BlankScreen	VGS	4	1	True	lime	40	[ 90 570 405 675]	[1350 1830  405  675]
31.409	1.0	2026481	2027521	ELCue	VGS	4	1	True	lime	40	[ 90 570 405 675]	[1350 1830  405  675]
32.865	2.0	2027937	2030566	ShowFixation	VGS	5	1	True	lime	460	[1035 1515  405  675]	[405 885 405 675]
35.494	0.2	2030566	2030802	BlankScreen	VGS	5	1	True	lime	460	[1035 1515  405  675]	[405 885 405 675]
35.73	1.0	2030802	2031842	ELCue	VGS	5	1	True	lime	460	[1035 1515  405  675]	[405 885 405 675]
37.183	6.0	2032255	2038887	ShowFixation	ANTI	6	1	True	red	600	[ 90 570 405 675]	[1350 1830  405  675]
43.815	0.2	2038887	2039127	BlankScreen	ANTI	6	1	True	red	600	[ 90 570 405 675]	[1350 1830  405  675]
44.055	1.0	2039127	2040167	ELCue	ANTI	6	1	True	red	600	[ 90 570 405 675]	[1350 1830  405  675]
45.508	2.0	2040580	2043212	ShowFixation	ANTI	7	1	True	red	600	[ 90 570 405 675]	[1350 1830  405  675]
48.14	0.2	2043212	2043448	BlankScreen	ANTI	7	1	True	red	600	[ 90 570 405 675]	[1350 1830  405  675]
48.376	1.0	2043448	2044488	ELCue	ANTI	7	1	True	red	600	[ 90 570 405 675]	[1350 1830  405  675]
49.828	2.0	2044900	2047517	ShowFixation	ANTI	8	1	True	red	180	[1035 1515  405  675]	[405 885 405 675]
52.445	0.2	2047517	2047735	BlankScreen	ANTI	8	1	True	red	180	[1035 1515  405  675]	[405 885 405 675]
52.663	1.0	2047735	2048758	ELCue	ANTI	8	1	True	red	180	[1035 1515  405  675]	[405 885 405 675]
54.103	2.0	2049175	2051804	ShowFixation	VGS	9	1	True	lime	40	[ 90 570 405 675]	[1350 1830  405  675]
56.732	0.2	2051804	2052039	BlankScreen	VGS	9	1	True	lime	40	[ 90 570 405 675]	[1350 1830  405  675]
56.967	1.0	2052039	2053080	ELCue	VGS	9	1	True	lime	40	[ 90 570 405 675]	[1350 1830  405  675]
58.426	6.0	2053498	2060125	ShowFixation	ANTI	10	1	True	red	40	[1350 1830  405  675]	[ 90 570 405 675]
65.053	0.2	2060125	2060364	BlankScreen	ANTI	10	1	True	red	40	[1350 1830  405  675]	[ 90 570 405 675]
65.292	1.0	2060364	2061405	ELCue	ANTI	10	1	True	red	40	[1350 1830  405  675]	[ 90 570 405 675]
66.756	2.0	2061828	2064450	ShowFixation	VGS	11	1	True	lime	600	[1350 1830  405  675]	[ 90 570 405 675]
69.378	0.2	2064450	2064685	BlankScreen	VGS	11	1	True	lime	600	[1350 1830  405  675]	[ 90 570 405 675]
69.613	1.0	2064685	2065726	ELCue	VGS	11	1	True	lime	600	[1350 1830  405  675]	[ 90 570 405 675]
71.076	2.0	2066148	2068771	ShowFixation	ANTI	12	1	True	red	40	[1350 1830  405  675]	[ 90 570 405 675]
73.699	0.2	2068771	2069006	BlankScreen	ANTI	12	1	True	red	40	[1350 1830  405  675]	[ 90 570 405 675]
73.934	1.0	2069006	2070047	ELCue	ANTI	12	1	True	red	40	[1350 1830  405  675]	[ 90 570 405 675]
75.513	2.0	2070585	2073092	ShowFixation	ANTI	13	1	True	red	460	[405 885 405 675]	[1035 1515  405  675]
78.02	0.2	2073092	2073327	BlankScreen	ANTI	13	1	True	red	460	[405 885 405 675]	[1035 1515  405  675]
78.255	1.0	2073327	2074368	ELCue	ANTI	13	1	True	red	460	[405 885 405 675]	[1035 1515  405  675]
79.711	2.0	2074783	2077413	ShowFixation	VGS	14	1	True	lime	180	[405 885 405 675]	[1035 1515  405  675]
82.341	0.2	2077413	2077648	BlankScreen	VGS	14	1	True	lime	180	[405 885 405 675]	[1035 1515  405  675]
82.576	1.0	2077648	2078689	ELCue	VGS	14	1	True	lime	180	[405 885 405 675]	[1035 1515  405  675]
84.034	6.0	2079106	2085734	ShowFixation	VGS	15	1	True	lime	460	[1035 1515  405  675]	[405 885 405 675]
90.662	0.2	2085734	2085973	BlankScreen	VGS	15	1	True	lime	460	[1035 1515  405  675]	[405 885 405 675]
90.901	1.0	2085973	2087013	ELCue	VGS	15	1	True	lime	460	[1035 1515  405  675]	[405 885 405 675]
92.361	6.0	2087433	2094059	ShowFixation	VGS	16	1	True	lime	600	[1350 1830  405  675]	[ 90 570 405 675]
98.987	0.2	2094059	2094298	BlankScreen	VGS	16	1	True	lime	600	[1350 1830  405  675]	[ 90 570 405 675]
99.226	1.0	2094298	2095339	ELCue	VGS	16	1	True	lime	600	[1350 1830  405  675]	[ 90 570 405 675]
126.874	2.0	2121946	2123975	ShowFixation	ANTI	17	2	False	red	40	[1350 1830  405  675]	[ 90 570 405 675]
128.903	0.2	2123975	2124211	BlankScreen	ANTI	17	2	False	red	40	[1350 1830  405  675]	[ 90 570 405 675]
129.139	1.0	2124211	2125211	ELCue	ANTI	17	2	False	red	40	[1350 1830  405  675]	[ 90 570 405 675]
130.563	6.0	2125635	2131663	ShowFixation	VGS	18	2	False	lime	600	[1350 1830  405  675]	[ 90 570 405 675]
136.591	0.2	2131663	2131902	BlankScreen	VGS	18	2	False	lime	600	[1350 1830  405  675]	[ 90 570 405 675]
136.83	1.0	2131902	2132902	ELCue	VGS	18	2	False	lime	600	[1350 1830  405  675]	[ 90 570 405 675]
138.25	6.0	2133322	2139353	ShowFixation	VGS	19	2	False	lime	460	[1035 1515  405  675]	[405 885 405 675]
144.281	0.2	2139353	2139592	BlankScreen	VGS	19	2	False	lime	460	[1035 1515  405  675]	[405 885 405 675]
144.521	1.0	2139593	2140593	ELCue	VGS	19	2	False	lime	460	[1035 1515  405  675]	[405 885 405 675]
145.939	2.0	2141011	2143044	ShowFixation	ANTI	20	2	False	red	600	[ 90 570 405 675]	[1350 1830  405  675]
147.973	0.2	2143045	2143279	BlankScreen	ANTI	20	2	False	red	600	[ 90 570 405 675]	[1350 1830  405  675]
148.207	1.0	2143279	2144279	ELCue	ANTI	20	2	False	red	600	[ 90 570 405 675]	[1350 1830  405  675]
149.631	2.0	2144703	2146732	ShowFixation	ANTI	21	2	False	red	460	[405 885 405 675]	[1035 1515  405  675]
151.66	0.2	2146732	2146966	BlankScreen	ANTI	21	2	False	red	460	[405 885 405 675]	[1035 1515  405  675]
151.895	1.0	2146967	2147967	ELCue	ANTI	21	2	False	red	460	[405 885 405 675]	[1035 1515  405  675]
153.317	6.0	2148389	2154419	ShowFixation	ANTI	22	2	False	red	40	[1350 1830  405  675]	[ 90 570 405 675]
159.347	0.2	2154419	2154658	BlankScreen	ANTI	22	2	False	red	40	[1350 1830  405  675]	[ 90 570 405 675]
159.586	1.0	2154658	2155658	ELCue	ANTI	22	2	False	red	40	[1350 1830  405  675]	[ 90 570 405 675]
161.009	2.0	2156081	2158110	ShowFixation	VGS	23	2	False	lime	460	[1035 1515  405  675]	[405 885 405 675]
163.038	0.2	2158110	2158345	BlankScreen	VGS	23	2	False	lime	460	[1035 1515  405  675]	[405 885 405 675]
163.273	1.0	2158345	2159345	ELCue	VGS	23	2	False	lime	460	[1035 1515  405  675]	[405 885 405 675]
164.691	6.0	2159763	2165797	ShowFixation	ANTI	24	2	False	red	460	[405 885 405 675]	[1035 1515  405  675]
170.725	0.2	2165797	2166036	BlankScreen	ANTI	24	2	False	red	460	[405 885 405 675]	[1035 1515  405  675]
170.964	1.0	2166036	2167036	ELCue	ANTI	24	2	False	red	460	[405 885 405 675]	[1035 1515  405  675]
172.387	6.0	2167459	2173488	ShowFixation	ANTI	25	2	False	red	180	[1035 1515  405  675]	[405 885 405 675]
178.416	0.2	2173488	2173727	BlankScreen	ANTI	25	2	False	red	180	[1035 1515  405  675]	[405 885 405 675]
178.655	1.0	2173727	2174727	ELCue	ANTI	25	2	False	red	180	[1035 1515  405  675]	[405 885 405 675]
180.077	2.0	2175149	2177179	ShowFixation	ANTI	26	2	False	red	180	[1035 1515  405  675]	[405 885 405 675]
182.107	0.2	2177179	2177414	BlankScreen	ANTI	26	2	False	red	180	[1035 1515  405  675]	[405 885 405 675]
182.342	1.0	2177414	2178414	ELCue	ANTI	26	2	False	red	180	[1035 1515  405  675]	[405 885 405 675]
183.761	6.0	2178833	2184866	ShowFixation	ANTI	27	2	False	red	600	[ 90 570 405 675]	[1350 1830  405  675]
189.794	0.2	2184866	2185105	BlankScreen	ANTI	27	2	False	red	600	[ 90 570 405 675]	[1350 1830  405  675]
190.033	1.0	2185105	2186105	ELCue	ANTI	27	2	False	red	600	[ 90 570 405 675]	[1350 1830  405  675]
191.457	6.0	2186529	2192557	ShowFixation	VGS	28	2	False	lime	40	[ 90 570 405 675]	[1350 1830  405  675]
197.485	0.2	2192557	2192796	BlankScreen	VGS	28	2	False	lime	40	[ 90 570 405 675]	[1350 1830  405  675]
197.724	1.0	2192796	2193796	ELCue	VGS	28	2	False	lime	40	[ 90 570 405 675]	[1350 1830  405  675]
199.149	2.0	2194221	2196248	ShowFixation	VGS	29	2	False	lime	180	[405 885 405 675]	[1035 1515  405  675]
201.176	0.2	2196248	2196483	BlankScreen	VGS	29	2	False	lime	180	[405 885 405 675]	[1035 1515  405  675]
201.411	1.0	2196483	2197483	ELCue	VGS	29	2	False	lime	180	[405 885 405 675]	[1035 1515  405  675]
202.834	2.0	2197906	2199935	ShowFixation	VGS	30	2	False	lime	40	[ 90 570 405 675]	[1350 1830  405  675]
204.863	0.2	2199935	2200170	BlankScreen	VGS	30	2	False	lime	40	[ 90 570 405 675]	[1350 1830  405  675]
205.098	1.0	2200170	2201170	ELCue	VGS	30	2	False	lime	40	[ 90 570 405 675]	[1350 1830  405  675]
206.52	2.0	2201592	2203622	ShowFixation	VGS	31	2	False	lime	600	[1350 1830  405  675]	[ 90 570 405 675]
208.55	0.2	2203622	2203857	BlankScreen	VGS	31	2	False	lime	600	[1350 1830  405  675]	[ 90 570 405 675]
208.785	1.0	2203857	2204857	ELCue	VGS	31	2	False	lime	600	[1350 1830  405  675]	[ 90 570 405 675]
210.194	6.0	2205266	2211292	ShowFixation	VGS	32	2	False	lime	600	[1350 1830  405  675]	[ 90 570 405 675]
216.22	0.2	2211292	2211531	BlankScreen	VGS	32	2	False	lime	600	[1350 1830  405  675]	[ 90 570 405 675]
216.459	1.0	2211531	2212531	ELCue	VGS	32	2	False	lime	600	[1350 1830  405  675]	[ 90 570 405 675]
217.882	6.0	2212954	2218983	ShowFixation	ANTI	33	2	False	red	180	[1035 1515  405  675]	[405 885 405 675]
223.911	0.2	2218983	2219222	BlankScreen	ANTI	33	2	False	red	180	[1035 1515  405  675]	[405 885 405 675]
224.15	1.0	2219222	2220222	ELCue	ANTI	33	2	False	red	180	[1035 1515  405  675]	[405 885 405 675]
225.574	2.0	2220646	2222674	ShowFixation	ANTI	34	2	False	red	600	[ 90 570 405 675]	[1350 1830  405  675]
227.602	0.2	2222674	2222909	BlankScreen	ANTI	34	2	False	red	600	[ 90 570 405 675]	[1350 1830  405  675]
227.837	1.0	2222909	2223909	ELCue	ANTI	34	2	False	red	600	[ 90 570 405 675]	[1350 1830  405  675]
229.262	2.0	2224334	2226361	ShowFixation	VGS	35	2	False	lime	460	[1035 1515  405  675]	[405 885 405 675]
231.289	0.2	2226361	2226596	BlankScreen	VGS	35	2	False	lime	460	[1035 1515  405  675]	[405 885 405 675]
231.524	1.0	2226596	2227596	ELCue	VGS	35	2	False	lime	460	[1035 1515  405  675]	[405 885 405 675]
232.949	2.0	2228021	2230048	ShowFixation	ANTI	36	2	False	red	180	[1035 1515  405  675]	[405 885 405 675]
234.976	0.2	2230048	2230283	BlankScreen	ANTI	36	2	False	red	180	[1035 1515  405  675]	[405 885 405 675]
235.211	1.0	2230283	2231283	ELCue	ANTI	36	2	False	red	180	[1035 1515  405  675]	[405 885 405 675]
236.616	2.0	2231688	2233718	ShowFixation	VGS	37	2	False	lime	600	[1350 1830  405  675]	[ 90 570 405 675]
238.646	0.2	2233718	2233953	BlankScreen	VGS	37	2	False	lime	600	[1350 1830  405  675]	[ 90 570 405 675]
238.881	1.0	2233953	2234953	ELCue	VGS	37	2	False	lime	600	[1350 1830  405  675]	[ 90 570 405 675]
240.304	6.0	2235376	2241405	ShowFixation	ANTI	38	2	False	red	460	[405 885 405 675]	[1035 1515  405  675]
246.333	0.2	2241405	2241644	BlankScreen	ANTI	38	2	False	red	460	[405 885 405 675]	[1035 1515  405  675]
246.572	1.0	2241644	2242644	ELCue	ANTI	38	2	False	red	460	[405 885 405 675]	[1035 1515  405  675]
247.99	2.0	2243062	2245096	ShowFixation	VGS	39	2	False	lime	180	[405 885 405 675]	[1035 1515  405  675]
250.024	0.2	2245096	2245331	BlankScreen	VGS	39	2	False	lime	180	[405 885 405 675]	[1035 1515  405  675]
250.26	1.0	2245332	2246332	ELCue	VGS	39	2	False	lime	180	[405 885 405 675]	[1035 1515  405  675]
251.685	6.0	2246757	2252783	ShowFixation	ANTI	40	2	False	red	40	[1350 1830  405  675]	[ 90 570 405 675]
257.711	0.2	2252783	2253023	BlankScreen	ANTI	40	2	False	red	40	[1350 1830  405  675]	[ 90 570 405 675]
257.951	1.0	2253023	2254023	ELCue	ANTI	40	2	False	red	40	[1350 1830  405  675]	[ 90 570 405 675]
259.373	6.0	2254445	2260474	ShowFixation	VGS	41	2	False	lime	460	[1035 1515  405  675]	[405 885 405 675]
265.402	0.2	2260474	2260713	BlankScreen	VGS	41	2	False	lime	460	[1035 1515  405  675]	[405 885 405 675]
265.641	1.0	2260713	2261713	ELCue	VGS	41	2	False	lime	460	[1035 1515  405  675]	[405 885 405 675]
267.065	6.0	2262137	2268165	ShowFixation	ANTI	42	2	False	red	600	[ 90 570 405 675]	[1350 1830  405  675]
273.093	0.2	2268165	2268404	BlankScreen	ANTI	42	2	False	red	600	[ 90 570 405 675]	[1350 1830  405  675]
273.333	1.0	2268405	2269405	ELCue	ANTI	42	2	False	red	600	[ 90 570 405 675]	[1350 1830  405  675]
274.75	6.0	2269822	2275855	ShowFixation	VGS	43	2	False	lime	180	[405 885 405 675]	[1035 1515  405  675]
280.784	0.2	2275856	2276095	BlankScreen	VGS	43	2	False	lime	180	[405 885 405 675]	[1035 1515  405  675]
281.023	1.0	2276095	2277095	ELCue	VGS	43	2	False	lime	180	[405 885 405 675]	[1035 1515  405  675]
282.444	2.0	2277516	2279546	ShowFixation	ANTI	44	2	False	red	460	[405 885 405 675]	[1035 1515  405  675]
284.475	0.2	2279547	2279783	BlankScreen	ANTI	44	2	False	red	460	[405 885 405 675]	[1035 1515  405  675]
284.711	1.0	2279783	2280783	ELCue	ANTI	44	2	False	red	460	[405 885 405 675]	[1035 1515  405  675]
286.132	6.0	2281204	2287234	ShowFixation	VGS	45	2	False	lime	180	[405 885 405 675]	[1035 1515  405  675]
292.162	0.2	2287234	2287474	BlankScreen	VGS	45	2	False	lime	180	[405 885 405 675]	[1035 1515  405  675]
292.402	1.0	2287474	2288474	ELCue	VGS	45	2	False	lime	180	[405 885 405 675]	[1035 1515  405  675]
293.819	2.0	2288891	2290925	ShowFixation	VGS	46	2	False	lime	40	[ 90 570 405 675]	[1350 1830  405  675]
295.853	0.2	2290925	2291161	BlankScreen	VGS	46	2	False	lime	40	[ 90 570 405 675]	[1350 1830  405  675]
296.089	1.0	2291161	2292161	ELCue	VGS	46	2	False	lime	40	[ 90 570 405 675]	[1350 1830  405  675]
297.511	6.0	2292583	2298612	ShowFixation	VGS	47	2	False	lime	40	[ 90 570 405 675]	[1350 1830  405  675]
303.54	0.2	2298612	2298851	BlankScreen	VGS	47	2	False	lime	40	[ 90 570 405 675]	[1350 1830  405  675]
303.779	1.0	2298851	2299851	ELCue	VGS	47	2	False	lime	40	[ 90 570 405 675]	[1350 1830  405  675]
305.199	2.0	2300271	2302303	ShowFixation	ANTI	48	2	False	red	40	[1350 1830  405  675]	[ 90 570 405 675]
307.231	0.2	2302303	2302538	BlankScreen	ANTI	48	2	False	red	40	[1350 1830  405  675]	[ 90 570 405 675]
307.466	1.0	2302538	2303538	ELCue	ANTI	48	2	False	red	40	[1350 1830  405  675]	[ 90 570 405 675]
333.081	6.0	2328153	2334181	ShowFixation	ANTI	49	3	False	red	40	[1350 1830  405  675]	[ 90 570 405 675]
339.109	0.2	2334181	2334420	BlankScreen	ANTI	49	3	False	red	40	[1350 1830  405  675]	[ 90 570 405 675]
339.348	1.0	2334420	2335420	ELCue	ANTI	49	3	False	red	40	[1350 1830  405  675]	[ 90 570 405 675]
340.771	6.0	2335843	2341871	ShowFixation	VGS	50	3	False	lime	460	[1035 1515  405  675]	[405 885 405 675]
346.799	0.2	2341871	2342111	BlankScreen	VGS	50	3	False	lime	460	[1035 1515  405  675]	[405 885 405 675]
347.039	1.0	2342111	2343111	ELCue	VGS	50	3	False	lime	460	[1035 1515  405  675]	[405 885 405 675]
348.461	2.0	2343533	2345562	ShowFixation	ANTI	51	3	False	red	600	[ 90 570 405 675]	[1350 1830  405  675]
350.49	0.2	2345562	2345798	BlankScreen	ANTI	51	3	False	red	600	[ 90 570 405 675]	[1350 1830  405  675]
350.726	1.0	2345798	2346798	ELCue	ANTI	51	3	False	red	600	[ 90 570 405 675]	[1350 1830  405  675]
352.148	2.0	2347220	2349249	ShowFixation	ANTI	52	3	False	red	180	[1035 1515  405  675]	[405 885 405 675]
354.177	0.2	2349249	2349485	BlankScreen	ANTI	52	3	False	red	180	[1035 1515  405  675]	[405 885 405 675]
354.413	1.0	2349485	2350485	ELCue	ANTI	52	3	False	red	180	[1035 1515  405  675]	[405 885 405 675]
355.834	6.0	2350906	2356936	ShowFixation	VGS	53	3	False	lime	600	[1350 1830  405  675]	[ 90 570 405 675]
361.864	0.2	2356936	2357176	BlankScreen	VGS	53	3	False	lime	600	[1350 1830  405  675]	[ 90 570 405 675]
362.104	1.0	2357176	2358176	ELCue	VGS	53	3	False	lime	600	[1350 1830  405  675]	[ 90 570 405 675]
363.508	2.0	2358580	2360611	ShowFixation	ANTI	54	3	False	red	180	[1035 1515  405  675]	[405 885 405 675]
365.539	0.2	2360611	2360846	BlankScreen	ANTI	54	3	False	red	180	[1035 1515  405  675]	[405 885 405 675]
365.774	1.0	2360846	2361846	ELCue	ANTI	54	3	False	red	180	[1035 1515  405  675]	[405 885 405 675]
367.234	6.0	2362306	2368331	ShowFixation	VGS	55	3	False	lime	40	[ 90 570 405 675]	[1350 1830  405  675]
373.259	0.2	2368331	2368570	BlankScreen	VGS	55	3	False	lime	40	[ 90 570 405 675]	[1350 1830  405  675]
373.498	1.0	2368570	2369570	ELCue	VGS	55	3	False	lime	40	[ 90 570 405 675]	[1350 1830  405  675]
374.922	6.0	2369994	2376022	ShowFixation	ANTI	56	3	False	red	180	[1035 1515  405  675]	[405 885 405 675]
380.95	0.2	2376022	2376261	BlankScreen	ANTI	56	3	False	red	180	[1035 1515  405  675]	[405 885 405 675]
381.189	1.0	2376261	2377261	ELCue	ANTI	56	3	False	red	180	[1035 1515  405  675]	[405 885 405 675]
382.614	2.0	2377686	2379713	ShowFixation	VGS	57	3	False	lime	460	[1035 1515  405  675]	[405 885 405 675]
384.641	0.2	2379713	2379948	BlankScreen	VGS	57	3	False	lime	460	[1035 1515  405  675]	[405 885 405 675]
384.876	1.0	2379948	2380948	ELCue	VGS	57	3	False	lime	460	[1035 1515  405  675]	[405 885 405 675]
386.298	6.0	2381370	2387400	ShowFixation	ANTI	58	3	False	red	600	[ 90 570 405 675]	[1350 1830  405  675]
392.328	0.2	2387400	2387639	BlankScreen	ANTI	58	3	False	red	600	[ 90 570 405 675]	[1350 1830  405  675]
392.567	1.0	2387639	2388639	ELCue	ANTI	58	3	False	red	600	[ 90 570 405 675]	[1350 1830  405  675]
393.993	2.0	2389065	2391091	ShowFixation	VGS	59	3	False	lime	600	[1350 1830  405  675]	[ 90 570 405 675]
396.019	0.2	2391091	2391326	BlankScreen	VGS	59	3	False	lime	600	[1350 1830  405  675]	[ 90 570 405 675]
396.254	1.0	2391326	2392326	ELCue	VGS	59	3	False	lime	600	[1350 1830  405  675]	[ 90 570 405 675]
397.678	2.0	2392750	2394778	ShowFixation	ANTI	60	3	False	red	460	[405 885 405 675]	[1035 1515  405  675]
399.706	0.2	2394778	2395013	BlankScreen	ANTI	60	3	False	red	460	[405 885 405 675]	[1035 1515  405  675]
399.941	1.0	2395013	2396013	ELCue	ANTI	60	3	False	red	460	[405 885 405 675]	[1035 1515  405  675]
401.363	6.0	2396435	2402465	ShowFixation	ANTI	61	3	False	red	460	[405 885 405 675]	[1035 1515  405  675]
407.393	0.2	2402465	2402704	BlankScreen	ANTI	61	3	False	red	460	[405 885 405 675]	[1035 1515  405  675]
407.633	1.0	2402705	2403705	ELCue	ANTI	61	3	False	red	460	[405 885 405 675]	[1035 1515  405  675]
409.052	2.0	2404124	2406155	ShowFixation	ANTI	62	3	False	red	600	[ 90 570 405 675]	[1350 1830  405  675]
411.084	0.2	2406156	2406391	BlankScreen	ANTI	62	3	False	red	600	[ 90 570 405 675]	[1350 1830  405  675]
411.32	1.0	2406392	2407392	ELCue	ANTI	62	3	False	red	600	[ 90 570 405 675]	[1350 1830  405  675]
412.735	2.0	2407807	2409843	ShowFixation	ANTI	63	3	False	red	40	[1350 1830  405  675]	[ 90 570 405 675]
414.771	0.2	2409843	2410079	BlankScreen	ANTI	63	3	False	red	40	[1350 1830  405  675]	[ 90 570 405 675]
415.007	1.0	2410079	2411079	ELCue	ANTI	63	3	False	red	40	[1350 1830  405  675]	[ 90 570 405 675]
416.426	2.0	2411498	2413530	ShowFixation	VGS	64	3	False	lime	460	[1035 1515  405  675]	[405 885 405 675]
418.458	0.2	2413530	2413766	BlankScreen	VGS	64	3	False	lime	460	[1035 1515  405  675]	[405 885 405 675]
418.694	1.0	2413766	2414766	ELCue	VGS	64	3	False	lime	460	[1035 1515  405  675]	[405 885 405 675]
420.113	2.0	2415185	2417217	ShowFixation	VGS	65	3	False	lime	180	[405 885 405 675]	[1035 1515  405  675]
422.145	0.2	2417217	2417453	BlankScreen	VGS	65	3	False	lime	180	[405 885 405 675]	[1035 1515  405  675]
422.381	1.0	2417453	2418453	ELCue	VGS	65	3	False	lime	180	[405 885 405 675]	[1035 1515  405  675]
423.808	2.0	2418880	2420921	ShowFixation	VGS	66	3	False	lime	600	[1350 1830  405  675]	[ 90 570 405 675]
425.849	0.2	2420921	2421156	BlankScreen	VGS	66	3	False	lime	600	[1350 1830  405  675]	[ 90 570 405 675]
426.084	1.0	2421156	2422156	ELCue	VGS	66	3	False	lime	600	[1350 1830  405  675]	[ 90 570 405 675]
427.503	6.0	2422575	2428608	ShowFixation	VGS	67	3	False	lime	600	[1350 1830  405  675]	[ 90 570 405 675]
433.536	0.2	2428608	2428847	BlankScreen	VGS	67	3	False	lime	600	[1350 1830  405  675]	[ 90 570 405 675]
433.775	1.0	2428847	2429847	ELCue	VGS	67	3	False	lime	600	[1350 1830  405  675]	[ 90 570 405 675]
435.193	6.0	2430265	2436299	ShowFixation	ANTI	68	3	False	red	460	[405 885 405 675]	[1035 1515  405  675]
441.227	0.2	2436299	2436538	BlankScreen	ANTI	68	3	False	red	460	[405 885 405 675]	[1035 1515  405  675]
441.466	1.0	2436538	2437538	ELCue	ANTI	68	3	False	red	460	[405 885 405 675]	[1035 1515  405  675]
442.888	2.0	2437960	2439990	ShowFixation	ANTI	69	3	False	red	40	[1350 1830  405  675]	[ 90 570 405 675]
444.918	0.2	2439990	2440225	BlankScreen	ANTI	69	3	False	red	40	[1350 1830  405  675]	[ 90 570 405 675]
445.153	1.0	2440225	2441225	ELCue	ANTI	69	3	False	red	40	[1350 1830  405  675]	[ 90 570 405 675]
446.572	2.0	2441644	2443677	ShowFixation	ANTI	70	3	False	red	460	[405 885 405 675]	[1035 1515  405  675]
448.605	0.2	2443677	2443912	BlankScreen	ANTI	70	3	False	red	460	[405 885 405 675]	[1035 1515  405  675]
448.84	1.0	2443912	2444912	ELCue	ANTI	70	3	False	red	460	[405 885 405 675]	[1035 1515  405  675]
450.264	6.0	2445336	2451364	ShowFixation	VGS	71	3	False	lime	40	[ 90 570 405 675]	[1350 1830  405  675]
456.292	0.2	2451364	2451603	BlankScreen	VGS	71	3	False	lime	40	[ 90 570 405 675]	[1350 1830  405  675]
456.531	1.0	2451603	2452603	ELCue	VGS	71	3	False	lime	40	[ 90 570 405 675]	[1350 1830  405  675]
457.95	6.0	2453022	2459055	ShowFixation	VGS	72	3	False	lime	180	[405 885 405 675]	[1035 1515  405  675]
463.983	0.2	2459055	2459294	BlankScreen	VGS	72	3	False	lime	180	[405 885 405 675]	[1035 1515  405  675]
464.222	1.0	2459294	2460294	ELCue	VGS	72	3	False	lime	180	[405 885 405 675]	[1035 1515  405  675]
465.646	2.0	2460718	2462746	ShowFixation	VGS	73	3	False	lime	40	[ 90 570 405 675]	[1350 1830  405  675]
467.674	0.2	2462746	2462981	BlankScreen	VGS	73	3	False	lime	40	[ 90 570 405 675]	[1350 1830  405  675]
467.909	1.0	2462981	2463981	ELCue	VGS	73	3	False	lime	40	[ 90 570 405 675]	[1350 1830  405  675]
469.33	2.0	2464402	2466433	ShowFixation	VGS	74	3	False	lime	40	[ 90 570 405 675]	[1350 1830  405  675]
471.361	0.2	2466433	2466668	BlankScreen	VGS	74	3	False	lime	40	[ 90 570 405 675]	[1350 1830  405  675]
471.596	1.0	2466668	2467668	ELCue	VGS	74	3	False	lime	40	[ 90 570 405 675]	[1350 1830  405  675]
473.02	6.0	2468092	2474119	ShowFixation	VGS	75	3	False	lime	460	[1035 1515  405  675]	[405 885 405 675]
479.047	0.2	2474119	2474359	BlankScreen	VGS	75	3	False	lime	460	[1035 1515  405  675]	[405 885 405 675]
479.287	1.0	2474359	2475359	ELCue	VGS	75	3	False	lime	460	[1035 1515  405  675]	[405 885 405 675]
480.71	6.0	2475782	2481810	ShowFixation	ANTI	76	3	False	red	40	[1350 1830  405  675]	[ 90 570 405 675]
486.738	0.2	2481810	2482050	BlankScreen	ANTI	76	3	False	red	40	[1350 1830  405  675]	[ 90 570 405 675]
486.978	1.0	2482050	2483050	ELCue	ANTI	76	3	False	red	40	[1350 1830  405  675]	[ 90 570 405 675]
488.401	6.0	2483473	2489501	ShowFixation	ANTI	77	3	False	red	600	[ 90 570 405 675]	[1350 1830  405  675]
494.429	0.2	2489501	2489741	BlankScreen	ANTI	77	3	False	red	600	[ 90 570 405 675]	[1350 1830  405  675]
494.669	1.0	2489741	2490741	ELCue	ANTI	77	3	False	red	600	[ 90 570 405 675]	[1350 1830  405  675]
496.093	2.0	2491165	2493192	ShowFixation	VGS	78	3	False	lime	180	[405 885 405 675]	[1035 1515  405  675]
498.12	0.2	2493192	2493428	BlankScreen	VGS	78	3	False	lime	180	[405 885 405 675]	[1035 1515  405  675]
498.356	1.0	2493428	2494428	ELCue	VGS	78	3	False	lime	180	[405 885 405 675]	[1035 1515  405  675]
499.778	6.0	2494850	2500879	ShowFixation	ANTI	79	3	False	red	180	[1035 1515  405  675]	[405 885 405 675]
505.807	0.2	2500879	2501118	BlankScreen	ANTI	79	3	False	red	180	[1035 1515  405  675]	[405 885 405 675]
506.046	1.0	2501118	2502118	ELCue	ANTI	79	3	False	red	180	[1035 1515  405  675]	[405 885 405 675]
507.469	6.0	2502541	2508570	ShowFixation	VGS	80	3	False	lime	180	[405 885 405 675]	[1035 1515  405  675]
513.498	0.2	2508570	2508810	BlankScreen	VGS	80	3	False	lime	180	[405 885 405 675]	[1035 1515  405  675]
513.738	1.0	2508810	2509810	ELCue	VGS	80	3	False	lime	180	[405 885 405 675]	[1035 1515  405  675]
530.337	6.0	2525409	2531444	ShowFixation	ANTI	81	4	False	red	600	[ 90 570 405 675]	[1350 1830  405  675]
536.372	0.2	2531444	2531683	BlankScreen	ANTI	81	4	False	red	600	[ 90 570 405 675]	[1350 1830  405  675]
536.611	1.0	2531683	2532683	ELCue	ANTI	81	4	False	red	600	[ 90 570 405 675]	[1350 1830  405  675]
538.029	6.0	2533101	2539135	ShowFixation	ANTI	82	4	False	red	460	[405 885 405 675]	[1035 1515  405  675]
544.063	0.2	2539135	2539374	BlankScreen	ANTI	82	4	False	red	460	[405 885 405 675]	[1035 1515  405  675]
544.302	1.0	2539374	2540374	ELCue	ANTI	82	4	False	red	460	[405 885 405 675]	[1035 1515  405  675]
545.721	6.0	2540793	2546825	ShowFixation	ANTI	83	4	False	red	460	[405 885 405 675]	[1035 1515  405  675]
551.753	0.2	2546825	2547065	BlankScreen	ANTI	83	4	False	red	460	[405 885 405 675]	[1035 1515  405  675]
551.993	1.0	2547065	2548065	ELCue	ANTI	83	4	False	red	460	[405 885 405 675]	[1035 1515  405  675]
553.411	6.0	2548483	2554516	ShowFixation	VGS	84	4	False	lime	460	[1035 1515  405  675]	[405 885 405 675]
559.444	0.2	2554516	2554756	BlankScreen	VGS	84	4	False	lime	460	[1035 1515  405  675]	[405 885 405 675]
559.684	1.0	2554756	2555756	ELCue	VGS	84	4	False	lime	460	[1035 1515  405  675]	[405 885 405 675]
561.105	2.0	2556177	2558207	ShowFixation	ANTI	85	4	False	red	40	[1350 1830  405  675]	[ 90 570 405 675]
563.135	0.2	2558207	2558443	BlankScreen	ANTI	85	4	False	red	40	[1350 1830  405  675]	[ 90 570 405 675]
563.371	1.0	2558443	2559443	ELCue	ANTI	85	4	False	red	40	[1350 1830  405  675]	[ 90 570 405 675]
564.794	2.0	2559866	2561894	ShowFixation	ANTI	86	4	False	red	180	[1035 1515  405  675]	[405 885 405 675]
566.822	0.2	2561894	2562130	BlankScreen	ANTI	86	4	False	red	180	[1035 1515  405  675]	[405 885 405 675]
567.058	1.0	2562130	2563130	ELCue	ANTI	86	4	False	red	180	[1035 1515  405  675]	[405 885 405 675]
568.478	6.0	2563550	2569581	ShowFixation	ANTI	87	4	False	red	40	[1350 1830  405  675]	[ 90 570 405 675]
574.509	0.2	2569581	2569821	BlankScreen	ANTI	87	4	False	red	40	[1350 1830  405  675]	[ 90 570 405 675]
574.749	1.0	2569821	2570821	ELCue	ANTI	87	4	False	red	40	[1350 1830  405  675]	[ 90 570 405 675]
576.172	2.0	2571244	2573272	ShowFixation	VGS	88	4	False	lime	40	[ 90 570 405 675]	[1350 1830  405  675]
578.2	0.2	2573272	2573508	BlankScreen	VGS	88	4	False	lime	40	[ 90 570 405 675]	[1350 1830  405  675]
578.436	1.0	2573508	2574508	ELCue	VGS	88	4	False	lime	40	[ 90 570 405 675]	[1350 1830  405  675]
579.935	6.0	2575007	2581043	ShowFixation	ANTI	89	4	False	red	180	[1035 1515  405  675]	[405 885 405 675]
585.971	0.2	2581043	2581282	BlankScreen	ANTI	89	4	False	red	180	[1035 1515  405  675]	[405 885 405 675]
586.21	1.0	2581282	2582282	ELCue	ANTI	89	4	False	red	180	[1035 1515  405  675]	[405 885 405 675]
587.628	6.0	2582700	2588733	ShowFixation	ANTI	90	4	False	red	180	[1035 1515  405  675]	[405 885 405 675]
593.661	0.2	2588733	2588973	BlankScreen	ANTI	90	4	False	red	180	[1035 1515  405  675]	[405 885 405 675]
593.901	1.0	2588973	2589973	ELCue	ANTI	90	4	False	red	180	[1035 1515  405  675]	[405 885 405 675]
595.318	2.0	2590390	2592424	ShowFixation	VGS	91	4	False	lime	40	[ 90 570 405 675]	[1350 1830  405  675]
597.352	0.2	2592424	2592660	BlankScreen	VGS	91	4	False	lime	40	[ 90 570 405 675]	[1350 1830  405  675]
597.588	1.0	2592660	2593660	ELCue	VGS	91	4	False	lime	40	[ 90 570 405 675]	[1350 1830  405  675]
599.008	2.0	2594080	2596111	ShowFixation	VGS	92	4	False	lime	180	[405 885 405 675]	[1035 1515  405  675]
601.039	0.2	2596111	2596347	BlankScreen	VGS	92	4	False	lime	180	[405 885 405 675]	[1035 1515  405  675]
601.275	1.0	2596347	2597347	ELCue	VGS	92	4	False	lime	180	[405 885 405 675]	[1035 1515  405  675]
602.693	6.0	2597765	2603798	ShowFixation	VGS	93	4	False	lime	40	[ 90 570 405 675]	[1350 1830  405  675]
608.726	0.2	2603798	2604038	BlankScreen	VGS	93	4	False	lime	40	[ 90 570 405 675]	[1350 1830  405  675]
608.966	1.0	2604038	2605038	ELCue	VGS	93	4	False	lime	40	[ 90 570 405 675]	[1350 1830  405  675]
610.39	6.0	2605462	2611489	ShowFixation	VGS	94	4	False	lime	180	[405 885 405 675]	[1035 1515  405  675]
616.417	0.2	2611489	2611729	BlankScreen	VGS	94	4	False	lime	180	[405 885 405 675]	[1035 1515  405  675]
616.657	1.0	2611729	2612729	ELCue	VGS	94	4	False	lime	180	[405 885 405 675]	[1035 1515  405  675]
618.078	2.0	2613150	2615180	ShowFixation	VGS	95	4	False	lime	460	[1035 1515  405  675]	[405 885 405 675]
620.108	0.2	2615180	2615416	BlankScreen	VGS	95	4	False	lime	460	[1035 1515  405  675]	[405 885 405 675]
620.344	1.0	2615416	2616416	ELCue	VGS	95	4	False	lime	460	[1035 1515  405  675]	[405 885 405 675]
621.766	2.0	2616838	2618867	ShowFixation	ANTI	96	4	False	red	180	[1035 1515  405  675]	[405 885 405 675]
623.795	0.2	2618867	2619102	BlankScreen	ANTI	96	4	False	red	180	[1035 1515  405  675]	[405 885 405 675]
624.03	1.0	2619102	2620102	ELCue	ANTI	96	4	False	red	180	[1035 1515  405  675]	[405 885 405 675]
625.454	6.0	2620526	2626554	ShowFixation	VGS	97	4	False	lime	460	[1035 1515  405  675]	[405 885 405 675]
631.482	0.2	2626554	2626793	BlankScreen	VGS	97	4	False	lime	460	[1035 1515  405  675]	[405 885 405 675]
631.721	1.0	2626793	2627793	ELCue	VGS	97	4	False	lime	460	[1035 1515  405  675]	[405 885 405 675]
633.144	2.0	2628216	2630245	ShowFixation	VGS	98	4	False	lime	600	[1350 1830  405  675]	[ 90 570 405 675]
635.173	0.2	2630245	2630480	BlankScreen	VGS	98	4	False	lime	600	[1350 1830  405  675]	[ 90 570 405 675]
635.408	1.0	2630480	2631480	ELCue	VGS	98	4	False	lime	600	[1350 1830  405  675]	[ 90 570 405 675]
636.828	2.0	2631900	2633932	ShowFixation	ANTI	99	4	False	red	460	[405 885 405 675]	[1035 1515  405  675]
638.86	0.2	2633932	2634167	BlankScreen	ANTI	99	4	False	red	460	[405 885 405 675]	[1035 1515  405  675]
639.095	1.0	2634167	2635167	ELCue	ANTI	99	4	False	red	460	[405 885 405 675]	[1035 1515  405  675]
640.524	6.0	2635596	2641636	ShowFixation	ANTI	100	4	False	red	40	[1350 1830  405  675]	[ 90 570 405 675]
646.564	0.2	2641636	2641876	BlankScreen	ANTI	100	4	False	red	40	[1350 1830  405  675]	[ 90 570 405 675]
646.804	1.0	2641876	2642876	ELCue	ANTI	100	4	False	red	40	[1350 1830  405  675]	[ 90 570 405 675]
648.228	2.0	2643300	2645328	ShowFixation	ANTI	101	4	False	red	40	[1350 1830  405  675]	[ 90 570 405 675]
650.256	0.2	2645328	2645562	BlankScreen	ANTI	101	4	False	red	40	[1350 1830  405  675]	[ 90 570 405 675]
650.491	1.0	2645563	2646563	ELCue	ANTI	101	4	False	red	40	[1350 1830  405  675]	[ 90 570 405 675]
651.912	2.0	2646984	2649014	ShowFixation	ANTI	102	4	False	red	600	[ 90 570 405 675]	[1350 1830  405  675]
653.942	0.2	2649014	2649249	BlankScreen	ANTI	102	4	False	red	600	[ 90 570 405 675]	[1350 1830  405  675]
654.177	1.0	2649249	2650249	ELCue	ANTI	102	4	False	red	600	[ 90 570 405 675]	[1350 1830  405  675]
655.598	2.0	2650670	2652701	ShowFixation	ANTI	103	4	False	red	460	[405 885 405 675]	[1035 1515  405  675]
657.629	0.2	2652701	2652936	BlankScreen	ANTI	103	4	False	red	460	[405 885 405 675]	[1035 1515  405  675]
657.865	1.0	2652937	2653937	ELCue	ANTI	103	4	False	red	460	[405 885 405 675]	[1035 1515  405  675]
659.284	6.0	2654356	2660389	ShowFixation	VGS	104	4	False	lime	180	[405 885 405 675]	[1035 1515  405  675]
665.317	0.2	2660389	2660628	BlankScreen	VGS	104	4	False	lime	180	[405 885 405 675]	[1035 1515  405  675]
665.556	1.0	2660628	2661628	ELCue	VGS	104	4	False	lime	180	[405 885 405 675]	[1035 1515  405  675]
666.973	2.0	2662045	2664079	ShowFixation	ANTI	105	4	False	red	600	[ 90 570 405 675]	[1350 1830  405  675]
669.007	0.2	2664079	2664315	BlankScreen	ANTI	105	4	False	red	600	[ 90 570 405 675]	[1350 1830  405  675]
669.243	1.0	2664315	2665315	ELCue	ANTI	105	4	False	red	600	[ 90 570 405 675]	[1350 1830  405  675]
670.664	2.0	2665736	2667766	ShowFixation	VGS	106	4	False	lime	460	[1035 1515  405  675]	[405 885 405 675]
672.694	0.2	2667766	2668002	BlankScreen	VGS	106	4	False	lime	460	[1035 1515  405  675]	[405 885 405 675]
672.93	1.0	2668002	2669002	ELCue	VGS	106	4	False	lime	460	[1035 1515  405  675]	[405 885 405 675]
674.333	6.0	2669405	2675437	ShowFixation	VGS	107	4	False	lime	600	[1350 1830  405  675]	[ 90 570 405 675]
680.365	0.2	2675437	2675676	BlankScreen	VGS	107	4	False	lime	600	[1350 1830  405  675]	[ 90 570 405 675]
680.604	1.0	2675676	2676676	ELCue	VGS	107	4	False	lime	600	[1350 1830  405  675]	[ 90 570 405 675]
682.025	6.0	2677097	2683128	ShowFixation	VGS	108	4	False	lime	600	[1350 1830  405  675]	[ 90 570 405 675]
688.056	0.2	2683128	2683367	BlankScreen	VGS	108	4	False	lime	600	[1350 1830  405  675]	[ 90 570 405 675]
688.295	1.0	2683367	2684367	ELCue	VGS	108	4	False	lime	600	[1350 1830  405  675]	[ 90 570 405 675]
689.722	6.0	2684794	2690818	ShowFixation	VGS	109	4	False	lime	40	[ 90 570 405 675]	[1350 1830  405  675]
695.746	0.2	2690818	2691058	BlankScreen	VGS	109	4	False	lime	40	[ 90 570 405 675]	[1350 1830  405  675]
695.986	1.0	2691058	2692058	ELCue	VGS	109	4	False	lime	40	[ 90 570 405 675]	[1350 1830  405  675]
697.406	6.0	2692478	2698509	ShowFixation	ANTI	110	4	False	red	600	[ 90 570 405 675]	[1350 1830  405  675]
703.437	0.2	2698509	2698749	BlankScreen	ANTI	110	4	False	red	600	[ 90 570 405 675]	[1350 1830  405  675]
703.677	1.0	2698749	2699749	ELCue	ANTI	110	4	False	red	600	[ 90 570 405 675]	[1350 1830  405  675]
705.095	2.0	2700167	2702200	ShowFixation	VGS	111	4	False	lime	180	[405 885 405 675]	[1035 1515  405  675]
707.128	0.2	2702200	2702436	BlankScreen	VGS	111	4	False	lime	180	[405 885 405 675]	[1035 1515  405  675]
707.364	1.0	2702436	2703436	ELCue	VGS	111	4	False	lime	180	[405 885 405 675]	[1035 1515  405  675]
708.783	2.0	2703855	2705887	ShowFixation	VGS	112	4	False	lime	600	[1350 1830  405  675]	[ 90 570 405 675]
710.815	0.2	2705887	2706123	BlankScreen	VGS	112	4	False	lime	600	[1350 1830  405  675]	[ 90 570 405 675]
711.051	1.0	2706123	2707123	ELCue	VGS	112	4	False	lime	600	[1350 1830  405  675]	[ 90 570 405 675]
