participant_id	condition	accuracy	reaction_time
sub-24268	incongruent	1	0.535
sub-24268	incongruent	0	0.565
sub-24268	incongruent	1	0.610
sub-24268	incongruent	1	0.595
sub-24268	incongruent	1	0.540
sub-24268	incongruent	1	0.470
sub-24268	congruent	1	0.445
sub-24268	congruent	1	0.423
sub-24268	congruent	1	0.398
sub-24268	incongruent	1	0.636
sub-24268	incongruent	1	0.660
sub-24268	incongruent	1	0.593
sub-24268	congruent	1	0.355
sub-24268	incongruent	1	0.496
sub-24268	incongruent	1	0.538
sub-24268	incongruent	1	0.485
sub-24268	incongruent	1	0.483
sub-24268	congruent	1	0.408
sub-24268	incongruent	1	0.498
sub-24268	incongruent	1	0.469
sub-24268	incongruent	1	0.522
sub-24268	congruent	1	0.420
sub-24268	congruent	1	0.387
sub-24268	incongruent	1	0.460
sub-24268	incongruent	1	0.466
sub-24268	congruent	1	0.437
sub-24268	incongruent	1	0.504
sub-24268	congruent	1	0.387
sub-24268	congruent	1	0.395
sub-24268	congruent	1	0.355
sub-24268	congruent	1	0.337
sub-24268	incongruent	1	0.513
sub-24268	congruent	1	0.455
sub-24268	congruent	1	0.404
sub-24268	incongruent	1	0.519
sub-24268	congruent	1	0.435
sub-24268	congruent	1	0.368
sub-24268	congruent	1	0.487
sub-24268	incongruent	1	0.612
sub-24268	congruent	1	0.421
sub-24268	incongruent	1	0.562
sub-24268	congruent	1	0.410
sub-24268	congruent	1	0.351
sub-24268	congruent	1	0.393
sub-24268	incongruent	1	0.482
sub-24268	incongruent	1	0.502
sub-24268	incongruent	1	0.459
sub-24268	incongruent	1	0.425
sub-24268	congruent	1	0.395
sub-24268	congruent	1	0.405
sub-24268	congruent	1	0.388
sub-24268	congruent	1	0.384
sub-24268	congruent	1	0.372
sub-24268	congruent	1	0.374
sub-24268	congruent	1	0.365
sub-24268	incongruent	1	0.483
sub-24268	incongruent	1	0.419
sub-24268	congruent	1	0.377
sub-24268	congruent	1	0.387
sub-24268	incongruent	1	0.454
sub-24268	incongruent	1	0.491
sub-24268	incongruent	1	0.447
sub-24268	incongruent	1	0.486
sub-24268	incongruent	1	0.448
sub-24268	incongruent	1	0.365
sub-24268	incongruent	1	0.480
sub-24268	congruent	1	0.352
sub-24268	congruent	1	0.326
sub-24268	incongruent	0	0.252
sub-24268	congruent	1	0.346
sub-24268	incongruent	1	0.497
sub-24268	incongruent	0	0.300
sub-24268	congruent	1	0.365
sub-24268	incongruent	1	0.411
sub-24268	incongruent	1	0.426
sub-24268	incongruent	1	0.377
sub-24268	congruent	1	0.354
sub-24268	congruent	1	0.293
sub-24268	incongruent	0	0.352
sub-24268	congruent	1	0.390
sub-24268	congruent	1	0.378
sub-24268	incongruent	1	0.532
sub-24268	incongruent	1	0.356
sub-24268	congruent	1	0.384
sub-24268	congruent	1	0.361
sub-24268	congruent	1	0.322
sub-24268	congruent	1	0.329
sub-24268	congruent	1	0.366
sub-24268	congruent	1	0.308
sub-24268	congruent	1	0.289
sub-24268	incongruent	1	0.379
sub-24268	congruent	1	0.356
sub-24268	incongruent	0	0.272
sub-24268	incongruent	1	0.308
sub-24268	congruent	1	0.354
sub-24268	incongruent	1	0.399
sub-24268	incongruent	1	0.509
sub-24268	congruent	1	0.342
sub-24268	incongruent	0	0.355
sub-24268	congruent	1	0.271
sub-24268	incongruent	0	0.381
sub-24268	congruent	1	0.388
sub-24268	congruent	1	0.373
sub-24268	incongruent	1	0.509
sub-24268	congruent	1	0.367
sub-24268	congruent	1	0.461
sub-24268	congruent	1	0.346
sub-24268	incongruent	0	0.363
sub-24268	incongruent	1	0.455
sub-24268	incongruent	1	0.393
sub-24268	congruent	1	0.353
sub-24268	congruent	1	0.379
sub-24268	incongruent	1	0.455
sub-24268	incongruent	1	0.493
sub-24268	congruent	1	0.360
sub-24268	incongruent	1	0.521
sub-24268	congruent	1	0.443
sub-24268	incongruent	0	0.347
sub-24268	congruent	1	0.423
sub-24268	congruent	1	0.375
sub-24268	incongruent	1	0.458
sub-24268	congruent	1	0.303
sub-24268	incongruent	1	0.410
sub-24268	incongruent	0	0.379
sub-24268	incongruent	1	0.395
sub-24268	congruent	0	0.242
sub-24268	congruent	1	0.311
sub-24268	incongruent	0	0.317
sub-24268	congruent	0	0.183
sub-24268	congruent	1	0.423
sub-24268	incongruent	0	0.267
sub-24268	incongruent	1	0.490
sub-24268	incongruent	0	0.343
sub-24268	incongruent	1	0.463
sub-24268	congruent	1	0.350
sub-24268	incongruent	1	0.398
sub-24268	incongruent	1	0.371
sub-24268	incongruent	1	0.427
sub-24268	incongruent	1	0.379
sub-24268	congruent	1	0.383
sub-24268	congruent	1	0.357
sub-24268	incongruent	0	0.359
sub-24268	congruent	1	0.380
sub-24268	incongruent	1	0.352
sub-24268	congruent	1	0.357
sub-24268	congruent	1	0.349
sub-24268	congruent	1	0.340
sub-24268	incongruent	1	0.381
sub-24268	congruent	1	0.341
sub-24268	congruent	1	0.330
sub-24268	congruent	1	0.345
sub-24268	congruent	1	0.337
sub-24268	incongruent	0	0.312
sub-24268	congruent	1	0.349
sub-24268	congruent	1	0.345
sub-24268	congruent	1	0.400
sub-24268	incongruent	0	0.353
sub-24268	congruent	1	0.408
sub-24268	incongruent	1	0.440
sub-24268	incongruent	1	0.407
sub-24268	incongruent	1	0.536
sub-24268	incongruent	1	0.398
sub-24268	incongruent	1	0.395
sub-24268	congruent	1	0.296
sub-24268	congruent	1	0.254
sub-24268	incongruent	0	0.346
sub-24268	incongruent	1	0.366
sub-24268	incongruent	1	0.251
sub-24268	congruent	0	0.232
sub-24268	congruent	1	0.163
sub-24268	congruent	1	0.314
sub-24268	incongruent	0	0.281
sub-24268	incongruent	1	0.867
sub-24268	congruent	1	0.350
sub-24268	congruent	1	0.384
sub-24268	congruent	0	0.210
sub-24268	incongruent	0	0.431
sub-24268	congruent	0	0.204
sub-24268	incongruent	1	0.171
sub-24268	congruent	1	0.324
sub-24268	incongruent	0	0.318
sub-24268	congruent	1	0.306
sub-24268	congruent	0	0.238
sub-24268	incongruent	0	0.267
sub-24268	congruent	1	0.334
sub-24268	congruent	1	0.281
sub-24268	incongruent	1	0.208
sub-24268	congruent	0	0.198
sub-24268	incongruent	0	0.142
sub-24268	congruent	1	0.493
sub-24268	incongruent	0	0.259
sub-24268	incongruent	1	0.555
sub-24268	congruent	0	0.150
sub-24268	congruent	0	0.131
sub-24268	incongruent	1	0.615
sub-24268	incongruent	0	0.199
sub-24268	congruent	1	0.071
sub-24268	congruent	0	0.189
sub-24268	incongruent	0	0.329
sub-24268	incongruent	1	0.359
sub-24268	incongruent	0	0.303
sub-24268	congruent	1	0.375
sub-24268	incongruent	1	0.229
sub-24268	incongruent	0	0.165
sub-24268	incongruent	0	0.330
sub-24268	incongruent	1	0.149
sub-24268	incongruent	1	0.040
sub-24268	congruent	1	0.331
sub-24268	incongruent	0	0.069
sub-24268	congruent	0	0.021
sub-24268	congruent	0	0.098
sub-24268	incongruent	1	0.069
sub-24268	incongruent	1	0.097
sub-24268	incongruent	1	0.064
sub-24268	congruent	0	0.051
sub-24268	congruent	1	0.104
sub-24268	incongruent	0	0.247
sub-24268	incongruent	1	0.007
sub-24268	incongruent	1	0.054
sub-24268	incongruent	1	0.536
sub-24268	incongruent	0	0.217
sub-24268	incongruent	1	0.182
sub-24268	congruent	1	0.173
sub-24268	congruent	0	0.152
sub-24268	congruent	1	0.170
sub-24268	congruent	1	0.201
sub-24268	congruent	1	0.111
sub-24268	congruent	1	0.419
sub-24268	congruent	0	0.110
sub-24268	incongruent	1	0.014
sub-24268	congruent	1	0.480
sub-24268	congruent	0	0.126
sub-24268	congruent	1	0.061
sub-24268	incongruent	0	0.047
sub-24268	congruent	1	0.175
sub-24268	incongruent	1	0.209
sub-24268	congruent	0	0.203
sub-24268	congruent	1	0.047
sub-24268	congruent	1	0.017
sub-24268	incongruent	0	0.195
