onset	duration	startTime	stopTime	eventIdentifier	trial_type	trial_number	block_number	is_practice	fixation_color	cue_side	aoi_correct	aoi_incorrect
0.146	6.0	606211	612237	ShowFixation	ANTI	1	1	True	red	600	[ 90 570 405 675]	[1350 1830  405  675]
6.172	0.2	612237	612476	BlankScreen	ANTI	1	1	True	red	600	[ 90 570 405 675]	[1350 1830  405  675]
6.411	1.0	612476	613517	ELCue	ANTI	1	1	True	red	600	[ 90 570 405 675]	[1350 1830  405  675]
7.858	6.0	613923	620562	ShowFixation	ANTI	2	1	True	red	180	[1035 1515  405  675]	[405 885 405 675]
14.497	0.2	620562	620801	BlankScreen	ANTI	2	1	True	red	180	[1035 1515  405  675]	[405 885 405 675]
14.736	1.0	620801	621842	ELCue	ANTI	2	1	True	red	180	[1035 1515  405  675]	[405 885 405 675]
16.179	2.0	622244	624887	ShowFixation	VGS	3	1	True	lime	40	[ 90 570 405 675]	[1350 1830  405  675]
18.822	0.2	624887	625122	BlankScreen	VGS	3	1	True	lime	40	[ 90 570 405 675]	[1350 1830  405  675]
19.057	1.0	625122	626163	ELCue	VGS	3	1	True	lime	40	[ 90 570 405 675]	[1350 1830  405  675]
20.503	2.0	626568	629208	ShowFixation	ANTI	4	1	True	red	600	[ 90 570 405 675]	[1350 1830  405  675]
23.143	0.2	629208	629443	BlankScreen	ANTI	4	1	True	red	600	[ 90 570 405 675]	[1350 1830  405  675]
23.379	1.0	629444	630484	ELCue	ANTI	4	1	True	red	600	[ 90 570 405 675]	[1350 1830  405  675]
24.821	2.0	630886	633529	ShowFixation	VGS	5	1	True	lime	600	[1350 1830  405  675]	[ 90 570 405 675]
27.464	0.2	633529	633764	BlankScreen	VGS	5	1	True	lime	600	[1350 1830  405  675]	[ 90 570 405 675]
27.699	1.0	633764	634805	ELCue	VGS	5	1	True	lime	600	[1350 1830  405  675]	[ 90 570 405 675]
29.139	2.0	635204	637834	ShowFixation	ANTI	6	1	True	red	40	[1350 1830  405  675]	[ 90 570 405 675]
31.769	0.2	637834	638052	BlankScreen	ANTI	6	1	True	red	40	[1350 1830  405  675]	[ 90 570 405 675]
31.987	1.0	638052	639076	ELCue	ANTI	6	1	True	red	40	[1350 1830  405  675]	[ 90 570 405 675]
33.415	2.0	639480	642121	ShowFixation	VGS	7	1	True	lime	460	[1035 1515  405  675]	[405 885 405 675]
36.056	0.2	642121	642357	BlankScreen	VGS	7	1	True	lime	460	[1035 1515  405  675]	[405 885 405 675]
36.292	1.0	642357	643397	ELCue	VGS	7	1	True	lime	460	[1035 1515  405  675]	[405 885 405 675]
37.734	2.0	643799	646426	ShowFixation	ANTI	8	1	True	red	460	[405 885 405 675]	[1035 1515  405  675]
40.361	0.2	646426	646644	BlankScreen	ANTI	8	1	True	red	460	[405 885 405 675]	[1035 1515  405  675]
40.579	1.0	646644	647668	ELCue	ANTI	8	1	True	red	460	[405 885 405 675]	[1035 1515  405  675]
41.971	2.0	648036	650713	ShowFixation	ANTI	9	1	True	red	180	[1035 1515  405  675]	[405 885 405 675]
44.648	0.2	650713	650949	BlankScreen	ANTI	9	1	True	red	180	[1035 1515  405  675]	[405 885 405 675]
44.884	1.0	650949	651989	ELCue	ANTI	9	1	True	red	180	[1035 1515  405  675]	[405 885 405 675]
46.324	6.0	652389	659034	ShowFixation	ANTI	10	1	True	red	40	[1350 1830  405  675]	[ 90 570 405 675]
52.969	0.2	659034	659273	BlankScreen	ANTI	10	1	True	red	40	[1350 1830  405  675]	[ 90 570 405 675]
53.208	1.0	659273	660314	ELCue	ANTI	10	1	True	red	40	[1350 1830  405  675]	[ 90 570 405 675]
54.649	6.0	660714	667359	ShowFixation	ANTI	11	1	True	red	460	[405 885 405 675]	[1035 1515  405  675]
61.294	0.2	667359	667598	BlankScreen	ANTI	11	1	True	red	460	[405 885 405 675]	[1035 1515  405  675]
61.533	1.0	667598	668638	ELCue	ANTI	11	1	True	red	460	[405 885 405 675]	[1035 1515  405  675]
62.976	6.0	669041	675667	ShowFixation	VGS	12	1	True	lime	600	[1350 1830  405  675]	[ 90 570 405 675]
69.602	0.2	675667	675906	BlankScreen	VGS	12	1	True	lime	600	[1350 1830  405  675]	[ 90 570 405 675]
69.841	1.0	675906	676947	ELCue	VGS	12	1	True	lime	600	[1350 1830  405  675]	[ 90 570 405 675]
71.285	6.0	677350	683992	ShowFixation	VGS	13	1	True	lime	180	[405 885 405 675]	[1035 1515  405  675]
77.927	0.2	683992	684231	BlankScreen	VGS	13	1	True	lime	180	[405 885 405 675]	[1035 1515  405  675]
78.166	1.0	684231	685272	ELCue	VGS	13	1	True	lime	180	[405 885 405 675]	[1035 1515  405  675]
79.614	6.0	685679	692317	ShowFixation	VGS	14	1	True	lime	40	[ 90 570 405 675]	[1350 1830  405  675]
86.252	0.2	692317	692557	BlankScreen	VGS	14	1	True	lime	40	[ 90 570 405 675]	[1350 1830  405  675]
86.492	1.0	692557	693597	ELCue	VGS	14	1	True	lime	40	[ 90 570 405 675]	[1350 1830  405  675]
87.938	6.0	694003	700642	ShowFixation	VGS	15	1	True	lime	460	[1035 1515  405  675]	[405 885 405 675]
94.577	0.2	700642	700881	BlankScreen	VGS	15	1	True	lime	460	[1035 1515  405  675]	[405 885 405 675]
94.816	1.0	700881	701922	ELCue	VGS	15	1	True	lime	460	[1035 1515  405  675]	[405 885 405 675]
96.26	2.0	702325	704967	ShowFixation	VGS	16	1	True	lime	180	[405 885 405 675]	[1035 1515  405  675]
98.903	0.2	704968	705202	BlankScreen	VGS	16	1	True	lime	180	[405 885 405 675]	[1035 1515  405  675]
99.137	1.0	705202	706243	ELCue	VGS	16	1	True	lime	180	[405 885 405 675]	[1035 1515  405  675]
119.649	6.0	725714	731740	ShowFixation	ANTI	17	2	False	red	180	[1035 1515  405  675]	[405 885 405 675]
125.675	0.2	731740	731979	BlankScreen	ANTI	17	2	False	red	180	[1035 1515  405  675]	[405 885 405 675]
125.914	1.0	731979	732979	ELCue	ANTI	17	2	False	red	180	[1035 1515  405  675]	[405 885 405 675]
127.322	6.0	733387	739414	ShowFixation	ANTI	18	2	False	red	600	[ 90 570 405 675]	[1350 1830  405  675]
133.349	0.2	739414	739654	BlankScreen	ANTI	18	2	False	red	600	[ 90 570 405 675]	[1350 1830  405  675]
133.589	1.0	739654	740654	ELCue	ANTI	18	2	False	red	600	[ 90 570 405 675]	[1350 1830  405  675]
134.993	2.0	741058	743088	ShowFixation	ANTI	19	2	False	red	180	[1035 1515  405  675]	[405 885 405 675]
137.023	0.2	743088	743324	BlankScreen	ANTI	19	2	False	red	180	[1035 1515  405  675]	[405 885 405 675]
137.259	1.0	743324	744324	ELCue	ANTI	19	2	False	red	180	[1035 1515  405  675]	[405 885 405 675]
138.665	2.0	744730	746759	ShowFixation	VGS	20	2	False	lime	600	[1350 1830  405  675]	[ 90 570 405 675]
140.694	0.2	746759	746994	BlankScreen	VGS	20	2	False	lime	600	[1350 1830  405  675]	[ 90 570 405 675]
140.929	1.0	746994	747994	ELCue	VGS	20	2	False	lime	600	[1350 1830  405  675]	[ 90 570 405 675]
142.32	2.0	748385	750412	ShowFixation	VGS	21	2	False	lime	180	[405 885 405 675]	[1035 1515  405  675]
144.347	0.2	750412	750648	BlankScreen	VGS	21	2	False	lime	180	[405 885 405 675]	[1035 1515  405  675]
144.583	1.0	750648	751648	ELCue	VGS	21	2	False	lime	180	[405 885 405 675]	[1035 1515  405  675]
145.99	6.0	752055	758083	ShowFixation	ANTI	22	2	False	red	460	[405 885 405 675]	[1035 1515  405  675]
152.018	0.2	758083	758322	BlankScreen	ANTI	22	2	False	red	460	[405 885 405 675]	[1035 1515  405  675]
152.257	1.0	758322	759322	ELCue	ANTI	22	2	False	red	460	[405 885 405 675]	[1035 1515  405  675]
153.662	2.0	759727	761757	ShowFixation	ANTI	23	2	False	red	180	[1035 1515  405  675]	[405 885 405 675]
155.692	0.2	761757	761992	BlankScreen	ANTI	23	2	False	red	180	[1035 1515  405  675]	[405 885 405 675]
155.927	1.0	761992	762992	ELCue	ANTI	23	2	False	red	180	[1035 1515  405  675]	[405 885 405 675]
157.335	2.0	763400	765427	ShowFixation	ANTI	24	2	False	red	40	[1350 1830  405  675]	[ 90 570 405 675]
159.362	0.2	765427	765663	BlankScreen	ANTI	24	2	False	red	40	[1350 1830  405  675]	[ 90 570 405 675]
159.598	1.0	765663	766663	ELCue	ANTI	24	2	False	red	40	[1350 1830  405  675]	[ 90 570 405 675]
160.994	2.0	767059	769097	ShowFixation	ANTI	25	2	False	red	460	[405 885 405 675]	[1035 1515  405  675]
163.032	0.2	769097	769333	BlankScreen	ANTI	25	2	False	red	460	[405 885 405 675]	[1035 1515  405  675]
163.268	1.0	769333	770333	ELCue	ANTI	25	2	False	red	460	[405 885 405 675]	[1035 1515  405  675]
164.672	6.0	770737	776768	ShowFixation	VGS	26	2	False	lime	460	[1035 1515  405  675]	[405 885 405 675]
170.703	0.2	776768	777007	BlankScreen	VGS	26	2	False	lime	460	[1035 1515  405  675]	[405 885 405 675]
170.942	1.0	777007	778007	ELCue	VGS	26	2	False	lime	460	[1035 1515  405  675]	[405 885 405 675]
172.35	2.0	778415	780442	ShowFixation	ANTI	27	2	False	red	600	[ 90 570 405 675]	[1350 1830  405  675]
174.377	0.2	780442	780677	BlankScreen	ANTI	27	2	False	red	600	[ 90 570 405 675]	[1350 1830  405  675]
174.612	1.0	780677	781677	ELCue	ANTI	27	2	False	red	600	[ 90 570 405 675]	[1350 1830  405  675]
176.02	2.0	782085	784112	ShowFixation	ANTI	28	2	False	red	600	[ 90 570 405 675]	[1350 1830  405  675]
178.047	0.2	784112	784348	BlankScreen	ANTI	28	2	False	red	600	[ 90 570 405 675]	[1350 1830  405  675]
178.283	1.0	784348	785348	ELCue	ANTI	28	2	False	red	600	[ 90 570 405 675]	[1350 1830  405  675]
179.693	2.0	785758	787783	ShowFixation	VGS	29	2	False	lime	460	[1035 1515  405  675]	[405 885 405 675]
181.718	0.2	787783	788018	BlankScreen	VGS	29	2	False	lime	460	[1035 1515  405  675]	[405 885 405 675]
181.953	1.0	788018	789018	ELCue	VGS	29	2	False	lime	460	[1035 1515  405  675]	[405 885 405 675]
183.357	6.0	789422	795454	ShowFixation	VGS	30	2	False	lime	460	[1035 1515  405  675]	[405 885 405 675]
189.389	0.2	795454	795692	BlankScreen	VGS	30	2	False	lime	460	[1035 1515  405  675]	[405 885 405 675]
189.627	1.0	795692	796692	ELCue	VGS	30	2	False	lime	460	[1035 1515  405  675]	[405 885 405 675]
191.033	6.0	797098	803128	ShowFixation	VGS	31	2	False	lime	600	[1350 1830  405  675]	[ 90 570 405 675]
197.063	0.2	803128	803367	BlankScreen	VGS	31	2	False	lime	600	[1350 1830  405  675]	[ 90 570 405 675]
197.302	1.0	803367	804367	ELCue	VGS	31	2	False	lime	600	[1350 1830  405  675]	[ 90 570 405 675]
198.689	2.0	804754	806786	ShowFixation	ANTI	32	2	False	red	460	[405 885 405 675]	[1035 1515  405  675]
200.721	0.2	806786	807021	BlankScreen	ANTI	32	2	False	red	460	[405 885 405 675]	[1035 1515  405  675]
200.956	1.0	807021	808021	ELCue	ANTI	32	2	False	red	460	[405 885 405 675]	[1035 1515  405  675]
202.365	2.0	808430	810456	ShowFixation	ANTI	33	2	False	red	40	[1350 1830  405  675]	[ 90 570 405 675]
204.391	0.2	810456	810691	BlankScreen	ANTI	33	2	False	red	40	[1350 1830  405  675]	[ 90 570 405 675]
204.626	1.0	810691	811691	ELCue	ANTI	33	2	False	red	40	[1350 1830  405  675]	[ 90 570 405 675]
206.035	6.0	812100	818126	ShowFixation	ANTI	34	2	False	red	40	[1350 1830  405  675]	[ 90 570 405 675]
212.061	0.2	818126	818365	BlankScreen	ANTI	34	2	False	red	40	[1350 1830  405  675]	[ 90 570 405 675]
212.3	1.0	818365	819365	ELCue	ANTI	34	2	False	red	40	[1350 1830  405  675]	[ 90 570 405 675]
213.709	6.0	819774	825800	ShowFixation	ANTI	35	2	False	red	460	[405 885 405 675]	[1035 1515  405  675]
219.735	0.2	825800	826040	BlankScreen	ANTI	35	2	False	red	460	[405 885 405 675]	[1035 1515  405  675]
219.975	1.0	826040	827040	ELCue	ANTI	35	2	False	red	460	[405 885 405 675]	[1035 1515  405  675]
221.38	2.0	827445	829475	ShowFixation	VGS	36	2	False	lime	40	[ 90 570 405 675]	[1350 1830  405  675]
223.41	0.2	829475	829710	BlankScreen	VGS	36	2	False	lime	40	[ 90 570 405 675]	[1350 1830  405  675]
223.645	1.0	829710	830710	ELCue	VGS	36	2	False	lime	40	[ 90 570 405 675]	[1350 1830  405  675]
225.052	6.0	831117	837145	ShowFixation	ANTI	37	2	False	red	180	[1035 1515  405  675]	[405 885 405 675]
231.08	0.2	837145	837384	BlankScreen	ANTI	37	2	False	red	180	[1035 1515  405  675]	[405 885 405 675]
231.319	1.0	837384	838384	ELCue	ANTI	37	2	False	red	180	[1035 1515  405  675]	[405 885 405 675]
232.728	6.0	838793	844819	ShowFixation	VGS	38	2	False	lime	600	[1350 1830  405  675]	[ 90 570 405 675]
238.754	0.2	844819	845058	BlankScreen	VGS	38	2	False	lime	600	[1350 1830  405  675]	[ 90 570 405 675]
238.993	1.0	845058	846058	ELCue	VGS	38	2	False	lime	600	[1350 1830  405  675]	[ 90 570 405 675]
240.396	6.0	846461	852493	ShowFixation	VGS	39	2	False	lime	40	[ 90 570 405 675]	[1350 1830  405  675]
246.428	0.2	852493	852733	BlankScreen	VGS	39	2	False	lime	40	[ 90 570 405 675]	[1350 1830  405  675]
246.668	1.0	852733	853733	ELCue	VGS	39	2	False	lime	40	[ 90 570 405 675]	[1350 1830  405  675]
248.073	2.0	854138	856168	ShowFixation	VGS	40	2	False	lime	40	[ 90 570 405 675]	[1350 1830  405  675]
250.103	0.2	856168	856403	BlankScreen	VGS	40	2	False	lime	40	[ 90 570 405 675]	[1350 1830  405  675]
250.338	1.0	856403	857403	ELCue	VGS	40	2	False	lime	40	[ 90 570 405 675]	[1350 1830  405  675]
251.744	6.0	857809	863838	ShowFixation	VGS	41	2	False	lime	40	[ 90 570 405 675]	[1350 1830  405  675]
257.773	0.2	863838	864077	BlankScreen	VGS	41	2	False	lime	40	[ 90 570 405 675]	[1350 1830  405  675]
258.012	1.0	864077	865077	ELCue	VGS	41	2	False	lime	40	[ 90 570 405 675]	[1350 1830  405  675]
259.393	6.0	865458	871495	ShowFixation	VGS	42	2	False	lime	180	[405 885 405 675]	[1035 1515  405  675]
265.43	0.2	871495	871735	BlankScreen	VGS	42	2	False	lime	180	[405 885 405 675]	[1035 1515  405  675]
265.67	1.0	871735	872735	ELCue	VGS	42	2	False	lime	180	[405 885 405 675]	[1035 1515  405  675]
267.06	6.0	873125	879153	ShowFixation	ANTI	43	2	False	red	40	[1350 1830  405  675]	[ 90 570 405 675]
273.088	0.2	879153	879392	BlankScreen	ANTI	43	2	False	red	40	[1350 1830  405  675]	[ 90 570 405 675]
273.327	1.0	879392	880392	ELCue	ANTI	43	2	False	red	40	[1350 1830  405  675]	[ 90 570 405 675]
274.718	2.0	880783	882810	ShowFixation	VGS	44	2	False	lime	180	[405 885 405 675]	[1035 1515  405  675]
276.745	0.2	882810	883046	BlankScreen	VGS	44	2	False	lime	180	[405 885 405 675]	[1035 1515  405  675]
276.981	1.0	883046	884046	ELCue	VGS	44	2	False	lime	180	[405 885 405 675]	[1035 1515  405  675]
278.388	2.0	884453	886481	ShowFixation	VGS	45	2	False	lime	600	[1350 1830  405  675]	[ 90 570 405 675]
280.417	0.2	886482	886716	BlankScreen	VGS	45	2	False	lime	600	[1350 1830  405  675]	[ 90 570 405 675]
280.652	1.0	886717	887717	ELCue	VGS	45	2	False	lime	600	[1350 1830  405  675]	[ 90 570 405 675]
282.054	6.0	888119	894152	ShowFixation	VGS	46	2	False	lime	180	[405 885 405 675]	[1035 1515  405  675]
288.087	0.2	894152	894391	BlankScreen	VGS	46	2	False	lime	180	[405 885 405 675]	[1035 1515  405  675]
288.326	1.0	894391	895391	ELCue	VGS	46	2	False	lime	180	[405 885 405 675]	[1035 1515  405  675]
289.732	6.0	895797	901826	ShowFixation	ANTI	47	2	False	red	600	[ 90 570 405 675]	[1350 1830  405  675]
295.761	0.2	901826	902066	BlankScreen	ANTI	47	2	False	red	600	[ 90 570 405 675]	[1350 1830  405  675]
296.001	1.0	902066	903066	ELCue	ANTI	47	2	False	red	600	[ 90 570 405 675]	[1350 1830  405  675]
297.409	2.0	903474	905501	ShowFixation	VGS	48	2	False	lime	460	[1035 1515  405  675]	[405 885 405 675]
299.436	0.2	905501	905736	BlankScreen	VGS	48	2	False	lime	460	[1035 1515  405  675]	[405 885 405 675]
299.671	1.0	905736	906736	ELCue	VGS	48	2	False	lime	460	[1035 1515  405  675]	[405 885 405 675]
333.032	6.0	939097	945136	ShowFixation	ANTI	49	3	False	red	180	[1035 1515  405  675]	[405 885 405 675]
339.071	0.2	945136	945375	BlankScreen	ANTI	49	3	False	red	180	[1035 1515  405  675]	[405 885 405 675]
339.31	1.0	945375	946375	ELCue	ANTI	49	3	False	red	180	[1035 1515  405  675]	[405 885 405 675]
340.719	6.0	946784	952810	ShowFixation	VGS	50	3	False	lime	40	[ 90 570 405 675]	[1350 1830  405  675]
346.745	0.2	952810	953049	BlankScreen	VGS	50	3	False	lime	40	[ 90 570 405 675]	[1350 1830  405  675]
346.984	1.0	953049	954049	ELCue	VGS	50	3	False	lime	40	[ 90 570 405 675]	[1350 1830  405  675]
348.394	6.0	954459	960484	ShowFixation	ANTI	51	3	False	red	460	[405 885 405 675]	[1035 1515  405  675]
354.419	0.2	960484	960723	BlankScreen	ANTI	51	3	False	red	460	[405 885 405 675]	[1035 1515  405  675]
354.658	1.0	960723	961723	ELCue	ANTI	51	3	False	red	460	[405 885 405 675]	[1035 1515  405  675]
356.061	6.0	962126	968158	ShowFixation	ANTI	52	3	False	red	40	[1350 1830  405  675]	[ 90 570 405 675]
362.093	0.2	968158	968398	BlankScreen	ANTI	52	3	False	red	40	[1350 1830  405  675]	[ 90 570 405 675]
362.333	1.0	968398	969398	ELCue	ANTI	52	3	False	red	40	[1350 1830  405  675]	[ 90 570 405 675]
363.74	2.0	969805	971834	ShowFixation	VGS	53	3	False	lime	600	[1350 1830  405  675]	[ 90 570 405 675]
365.769	0.2	971834	972068	BlankScreen	VGS	53	3	False	lime	600	[1350 1830  405  675]	[ 90 570 405 675]
366.003	1.0	972068	973068	ELCue	VGS	53	3	False	lime	600	[1350 1830  405  675]	[ 90 570 405 675]
367.413	2.0	973478	975504	ShowFixation	ANTI	54	3	False	red	180	[1035 1515  405  675]	[405 885 405 675]
369.439	0.2	975504	975739	BlankScreen	ANTI	54	3	False	red	180	[1035 1515  405  675]	[405 885 405 675]
369.674	1.0	975739	976739	ELCue	ANTI	54	3	False	red	180	[1035 1515  405  675]	[405 885 405 675]
371.08	6.0	977145	983173	ShowFixation	VGS	55	3	False	lime	40	[ 90 570 405 675]	[1350 1830  405  675]
377.109	0.2	983174	983413	BlankScreen	VGS	55	3	False	lime	40	[ 90 570 405 675]	[1350 1830  405  675]
377.348	1.0	983413	984413	ELCue	VGS	55	3	False	lime	40	[ 90 570 405 675]	[1350 1830  405  675]
378.757	2.0	984822	986848	ShowFixation	ANTI	56	3	False	red	40	[1350 1830  405  675]	[ 90 570 405 675]
380.783	0.2	986848	987084	BlankScreen	ANTI	56	3	False	red	40	[1350 1830  405  675]	[ 90 570 405 675]
381.019	1.0	987084	988084	ELCue	ANTI	56	3	False	red	40	[1350 1830  405  675]	[ 90 570 405 675]
382.429	2.0	988494	990535	ShowFixation	ANTI	57	3	False	red	460	[405 885 405 675]	[1035 1515  405  675]
384.47	0.2	990535	990771	BlankScreen	ANTI	57	3	False	red	460	[405 885 405 675]	[1035 1515  405  675]
384.706	1.0	990771	991771	ELCue	ANTI	57	3	False	red	460	[405 885 405 675]	[1035 1515  405  675]
386.112	2.0	992177	994206	ShowFixation	ANTI	58	3	False	red	460	[405 885 405 675]	[1035 1515  405  675]
388.141	0.2	994206	994441	BlankScreen	ANTI	58	3	False	red	460	[405 885 405 675]	[1035 1515  405  675]
388.376	1.0	994441	995441	ELCue	ANTI	58	3	False	red	460	[405 885 405 675]	[1035 1515  405  675]
389.764	6.0	995829	1001859	ShowFixation	VGS	59	3	False	lime	600	[1350 1830  405  675]	[ 90 570 405 675]
395.794	0.2	1001859	1002098	BlankScreen	VGS	59	3	False	lime	600	[1350 1830  405  675]	[ 90 570 405 675]
396.033	1.0	1002098	1003098	ELCue	VGS	59	3	False	lime	600	[1350 1830  405  675]	[ 90 570 405 675]
397.444	6.0	1003509	1009550	ShowFixation	VGS	60	3	False	lime	460	[1035 1515  405  675]	[405 885 405 675]
403.485	0.2	1009550	1009789	BlankScreen	VGS	60	3	False	lime	460	[1035 1515  405  675]	[405 885 405 675]
403.724	1.0	1009789	1010789	ELCue	VGS	60	3	False	lime	460	[1035 1515  405  675]	[405 885 405 675]
405.102	6.0	1011167	1017208	ShowFixation	VGS	61	3	False	lime	180	[405 885 405 675]	[1035 1515  405  675]
411.143	0.2	1017208	1017447	BlankScreen	VGS	61	3	False	lime	180	[405 885 405 675]	[1035 1515  405  675]
411.382	1.0	1017447	1018447	ELCue	VGS	61	3	False	lime	180	[405 885 405 675]	[1035 1515  405  675]
412.788	2.0	1018853	1020882	ShowFixation	VGS	62	3	False	lime	460	[1035 1515  405  675]	[405 885 405 675]
414.817	0.2	1020882	1021117	BlankScreen	VGS	62	3	False	lime	460	[1035 1515  405  675]	[405 885 405 675]
415.052	1.0	1021117	1022117	ELCue	VGS	62	3	False	lime	460	[1035 1515  405  675]	[405 885 405 675]
416.46	2.0	1022525	1024552	ShowFixation	VGS	63	3	False	lime	40	[ 90 570 405 675]	[1350 1830  405  675]
418.487	0.2	1024552	1024787	BlankScreen	VGS	63	3	False	lime	40	[ 90 570 405 675]	[1350 1830  405  675]
418.722	1.0	1024787	1025787	ELCue	VGS	63	3	False	lime	40	[ 90 570 405 675]	[1350 1830  405  675]
420.11	2.0	1026175	1028206	ShowFixation	VGS	64	3	False	lime	460	[1035 1515  405  675]	[405 885 405 675]
422.141	0.2	1028206	1028441	BlankScreen	VGS	64	3	False	lime	460	[1035 1515  405  675]	[405 885 405 675]
422.376	1.0	1028441	1029441	ELCue	VGS	64	3	False	lime	460	[1035 1515  405  675]	[405 885 405 675]
423.786	2.0	1029851	1031893	ShowFixation	VGS	65	3	False	lime	180	[405 885 405 675]	[1035 1515  405  675]
425.828	0.2	1031893	1032128	BlankScreen	VGS	65	3	False	lime	180	[405 885 405 675]	[1035 1515  405  675]
426.063	1.0	1032128	1033128	ELCue	VGS	65	3	False	lime	180	[405 885 405 675]	[1035 1515  405  675]
427.471	6.0	1033536	1039563	ShowFixation	ANTI	66	3	False	red	600	[ 90 570 405 675]	[1350 1830  405  675]
433.498	0.2	1039563	1039802	BlankScreen	ANTI	66	3	False	red	600	[ 90 570 405 675]	[1350 1830  405  675]
433.737	1.0	1039802	1040802	ELCue	ANTI	66	3	False	red	600	[ 90 570 405 675]	[1350 1830  405  675]
435.148	6.0	1041213	1047237	ShowFixation	ANTI	67	3	False	red	600	[ 90 570 405 675]	[1350 1830  405  675]
441.172	0.2	1047237	1047477	BlankScreen	ANTI	67	3	False	red	600	[ 90 570 405 675]	[1350 1830  405  675]
441.412	1.0	1047477	1048477	ELCue	ANTI	67	3	False	red	600	[ 90 570 405 675]	[1350 1830  405  675]
442.817	6.0	1048882	1054911	ShowFixation	ANTI	68	3	False	red	180	[1035 1515  405  675]	[405 885 405 675]
448.846	0.2	1054911	1055151	BlankScreen	ANTI	68	3	False	red	180	[1035 1515  405  675]	[405 885 405 675]
449.086	1.0	1055151	1056151	ELCue	ANTI	68	3	False	red	180	[1035 1515  405  675]	[405 885 405 675]
450.493	2.0	1056558	1058586	ShowFixation	ANTI	69	3	False	red	40	[1350 1830  405  675]	[ 90 570 405 675]
452.521	0.2	1058586	1058821	BlankScreen	ANTI	69	3	False	red	40	[1350 1830  405  675]	[ 90 570 405 675]
452.756	1.0	1058821	1059821	ELCue	ANTI	69	3	False	red	40	[1350 1830  405  675]	[ 90 570 405 675]
454.149	6.0	1060214	1066239	ShowFixation	VGS	70	3	False	lime	180	[405 885 405 675]	[1035 1515  405  675]
460.174	0.2	1066239	1066479	BlankScreen	VGS	70	3	False	lime	180	[405 885 405 675]	[1035 1515  405  675]
460.414	1.0	1066479	1067479	ELCue	VGS	70	3	False	lime	180	[405 885 405 675]	[1035 1515  405  675]
461.822	6.0	1067887	1073914	ShowFixation	ANTI	71	3	False	red	460	[405 885 405 675]	[1035 1515  405  675]
467.85	0.2	1073915	1074154	BlankScreen	ANTI	71	3	False	red	460	[405 885 405 675]	[1035 1515  405  675]
468.089	1.0	1074154	1075154	ELCue	ANTI	71	3	False	red	460	[405 885 405 675]	[1035 1515  405  675]
469.495	2.0	1075560	1077588	ShowFixation	VGS	72	3	False	lime	40	[ 90 570 405 675]	[1350 1830  405  675]
471.524	0.2	1077589	1077823	BlankScreen	VGS	72	3	False	lime	40	[ 90 570 405 675]	[1350 1830  405  675]
471.758	1.0	1077823	1078823	ELCue	VGS	72	3	False	lime	40	[ 90 570 405 675]	[1350 1830  405  675]
473.162	2.0	1079227	1081258	ShowFixation	ANTI	73	3	False	red	600	[ 90 570 405 675]	[1350 1830  405  675]
475.194	0.2	1081259	1081494	BlankScreen	ANTI	73	3	False	red	600	[ 90 570 405 675]	[1350 1830  405  675]
475.429	1.0	1081494	1082494	ELCue	ANTI	73	3	False	red	600	[ 90 570 405 675]	[1350 1830  405  675]
476.84	2.0	1082905	1084946	ShowFixation	VGS	74	3	False	lime	600	[1350 1830  405  675]	[ 90 570 405 675]
478.881	0.2	1084946	1085181	BlankScreen	VGS	74	3	False	lime	600	[1350 1830  405  675]	[ 90 570 405 675]
479.116	1.0	1085181	1086181	ELCue	VGS	74	3	False	lime	600	[1350 1830  405  675]	[ 90 570 405 675]
480.524	6.0	1086589	1092616	ShowFixation	ANTI	75	3	False	red	40	[1350 1830  405  675]	[ 90 570 405 675]
486.551	0.2	1092616	1092856	BlankScreen	ANTI	75	3	False	red	40	[1350 1830  405  675]	[ 90 570 405 675]
486.791	1.0	1092856	1093856	ELCue	ANTI	75	3	False	red	40	[1350 1830  405  675]	[ 90 570 405 675]
488.2	2.0	1094265	1096291	ShowFixation	ANTI	76	3	False	red	600	[ 90 570 405 675]	[1350 1830  405  675]
490.226	0.2	1096291	1096526	BlankScreen	ANTI	76	3	False	red	600	[ 90 570 405 675]	[1350 1830  405  675]
490.461	1.0	1096526	1097526	ELCue	ANTI	76	3	False	red	600	[ 90 570 405 675]	[1350 1830  405  675]
491.833	2.0	1097898	1099927	ShowFixation	ANTI	77	3	False	red	180	[1035 1515  405  675]	[405 885 405 675]
493.862	0.2	1099927	1100163	BlankScreen	ANTI	77	3	False	red	180	[1035 1515  405  675]	[405 885 405 675]
494.098	1.0	1100163	1101163	ELCue	ANTI	77	3	False	red	180	[1035 1515  405  675]	[405 885 405 675]
495.505	6.0	1101570	1107598	ShowFixation	VGS	78	3	False	lime	600	[1350 1830  405  675]	[ 90 570 405 675]
501.533	0.2	1107598	1107837	BlankScreen	VGS	78	3	False	lime	600	[1350 1830  405  675]	[ 90 570 405 675]
501.772	1.0	1107837	1108837	ELCue	VGS	78	3	False	lime	600	[1350 1830  405  675]	[ 90 570 405 675]
503.147	2.0	1109212	1111239	ShowFixation	VGS	79	3	False	lime	180	[405 885 405 675]	[1035 1515  405  675]
505.174	0.2	1111239	1111474	BlankScreen	VGS	79	3	False	lime	180	[405 885 405 675]	[1035 1515  405  675]
505.409	1.0	1111474	1112474	ELCue	VGS	79	3	False	lime	180	[405 885 405 675]	[1035 1515  405  675]
506.782	6.0	1112847	1118875	ShowFixation	VGS	80	3	False	lime	460	[1035 1515  405  675]	[405 885 405 675]
512.81	0.2	1118875	1119115	BlankScreen	VGS	80	3	False	lime	460	[1035 1515  405  675]	[405 885 405 675]
513.05	1.0	1119115	1120115	ELCue	VGS	80	3	False	lime	460	[1035 1515  405  675]	[405 885 405 675]
527.235	2.0	1133300	1135329	ShowFixation	ANTI	81	4	False	red	460	[405 885 405 675]	[1035 1515  405  675]
529.264	0.2	1135329	1135564	BlankScreen	ANTI	81	4	False	red	460	[405 885 405 675]	[1035 1515  405  675]
529.499	1.0	1135564	1136564	ELCue	ANTI	81	4	False	red	460	[405 885 405 675]	[1035 1515  405  675]
530.89	2.0	1136955	1138983	ShowFixation	VGS	82	4	False	lime	460	[1035 1515  405  675]	[405 885 405 675]
532.918	0.2	1138983	1139218	BlankScreen	VGS	82	4	False	lime	460	[1035 1515  405  675]	[405 885 405 675]
533.153	1.0	1139218	1140218	ELCue	VGS	82	4	False	lime	460	[1035 1515  405  675]	[405 885 405 675]
534.557	2.0	1140622	1142653	ShowFixation	ANTI	83	4	False	red	40	[1350 1830  405  675]	[ 90 570 405 675]
536.588	0.2	1142653	1142888	BlankScreen	ANTI	83	4	False	red	40	[1350 1830  405  675]	[ 90 570 405 675]
536.823	1.0	1142888	1143888	ELCue	ANTI	83	4	False	red	40	[1350 1830  405  675]	[ 90 570 405 675]
538.237	2.0	1144302	1146340	ShowFixation	VGS	84	4	False	lime	180	[405 885 405 675]	[1035 1515  405  675]
540.275	0.2	1146340	1146575	BlankScreen	VGS	84	4	False	lime	180	[405 885 405 675]	[1035 1515  405  675]
540.51	1.0	1146575	1147575	ELCue	VGS	84	4	False	lime	180	[405 885 405 675]	[1035 1515  405  675]
541.92	6.0	1147985	1154010	ShowFixation	VGS	85	4	False	lime	180	[405 885 405 675]	[1035 1515  405  675]
547.945	0.2	1154010	1154249	BlankScreen	VGS	85	4	False	lime	180	[405 885 405 675]	[1035 1515  405  675]
548.184	1.0	1154249	1155249	ELCue	VGS	85	4	False	lime	180	[405 885 405 675]	[1035 1515  405  675]
549.592	6.0	1155657	1161684	ShowFixation	VGS	86	4	False	lime	600	[1350 1830  405  675]	[ 90 570 405 675]
555.619	0.2	1161684	1161924	BlankScreen	VGS	86	4	False	lime	600	[1350 1830  405  675]	[ 90 570 405 675]
555.859	1.0	1161924	1162924	ELCue	VGS	86	4	False	lime	600	[1350 1830  405  675]	[ 90 570 405 675]
557.265	2.0	1163330	1165359	ShowFixation	VGS	87	4	False	lime	460	[1035 1515  405  675]	[405 885 405 675]
559.294	0.2	1165359	1165594	BlankScreen	VGS	87	4	False	lime	460	[1035 1515  405  675]	[405 885 405 675]
559.529	1.0	1165594	1166594	ELCue	VGS	87	4	False	lime	460	[1035 1515  405  675]	[405 885 405 675]
560.937	2.0	1167002	1169030	ShowFixation	ANTI	88	4	False	red	600	[ 90 570 405 675]	[1350 1830  405  675]
562.965	0.2	1169030	1169265	BlankScreen	ANTI	88	4	False	red	600	[ 90 570 405 675]	[1350 1830  405  675]
563.2	1.0	1169265	1170265	ELCue	ANTI	88	4	False	red	600	[ 90 570 405 675]	[1350 1830  405  675]
564.61	2.0	1170675	1172700	ShowFixation	ANTI	89	4	False	red	460	[405 885 405 675]	[1035 1515  405  675]
566.635	0.2	1172700	1172935	BlankScreen	ANTI	89	4	False	red	460	[405 885 405 675]	[1035 1515  405  675]
566.87	1.0	1172935	1173935	ELCue	ANTI	89	4	False	red	460	[405 885 405 675]	[1035 1515  405  675]
568.279	6.0	1174344	1180370	ShowFixation	ANTI	90	4	False	red	180	[1035 1515  405  675]	[405 885 405 675]
574.305	0.2	1180370	1180610	BlankScreen	ANTI	90	4	False	red	180	[1035 1515  405  675]	[405 885 405 675]
574.545	1.0	1180610	1181610	ELCue	ANTI	90	4	False	red	180	[1035 1515  405  675]	[405 885 405 675]
575.948	2.0	1182013	1184045	ShowFixation	VGS	91	4	False	lime	40	[ 90 570 405 675]	[1350 1830  405  675]
577.98	0.2	1184045	1184280	BlankScreen	VGS	91	4	False	lime	40	[ 90 570 405 675]	[1350 1830  405  675]
578.215	1.0	1184280	1185280	ELCue	VGS	91	4	False	lime	40	[ 90 570 405 675]	[1350 1830  405  675]
579.625	2.0	1185690	1187732	ShowFixation	VGS	92	4	False	lime	180	[405 885 405 675]	[1035 1515  405  675]
581.667	0.2	1187732	1187967	BlankScreen	VGS	92	4	False	lime	180	[405 885 405 675]	[1035 1515  405  675]
581.902	1.0	1187967	1188967	ELCue	VGS	92	4	False	lime	180	[405 885 405 675]	[1035 1515  405  675]
583.312	2.0	1189377	1191419	ShowFixation	ANTI	93	4	False	red	600	[ 90 570 405 675]	[1350 1830  405  675]
585.354	0.2	1191419	1191654	BlankScreen	ANTI	93	4	False	red	600	[ 90 570 405 675]	[1350 1830  405  675]
585.589	1.0	1191654	1192654	ELCue	ANTI	93	4	False	red	600	[ 90 570 405 675]	[1350 1830  405  675]
586.998	6.0	1193063	1199089	ShowFixation	ANTI	94	4	False	red	40	[1350 1830  405  675]	[ 90 570 405 675]
593.024	0.2	1199089	1199328	BlankScreen	ANTI	94	4	False	red	40	[1350 1830  405  675]	[ 90 570 405 675]
593.263	1.0	1199328	1200328	ELCue	ANTI	94	4	False	red	40	[1350 1830  405  675]	[ 90 570 405 675]
594.672	2.0	1200737	1202763	ShowFixation	ANTI	95	4	False	red	40	[1350 1830  405  675]	[ 90 570 405 675]
596.698	0.2	1202763	1202998	BlankScreen	ANTI	95	4	False	red	40	[1350 1830  405  675]	[ 90 570 405 675]
596.933	1.0	1202998	1203998	ELCue	ANTI	95	4	False	red	40	[1350 1830  405  675]	[ 90 570 405 675]
598.335	2.0	1204400	1206433	ShowFixation	VGS	96	4	False	lime	600	[1350 1830  405  675]	[ 90 570 405 675]
600.368	0.2	1206433	1206669	BlankScreen	VGS	96	4	False	lime	600	[1350 1830  405  675]	[ 90 570 405 675]
600.604	1.0	1206669	1207669	ELCue	VGS	96	4	False	lime	600	[1350 1830  405  675]	[ 90 570 405 675]
602.007	6.0	1208072	1214104	ShowFixation	VGS	97	4	False	lime	600	[1350 1830  405  675]	[ 90 570 405 675]
608.039	0.2	1214104	1214343	BlankScreen	VGS	97	4	False	lime	600	[1350 1830  405  675]	[ 90 570 405 675]
608.278	1.0	1214343	1215343	ELCue	VGS	97	4	False	lime	600	[1350 1830  405  675]	[ 90 570 405 675]
609.687	6.0	1215752	1221778	ShowFixation	ANTI	98	4	False	red	600	[ 90 570 405 675]	[1350 1830  405  675]
615.713	0.2	1221778	1222017	BlankScreen	ANTI	98	4	False	red	600	[ 90 570 405 675]	[1350 1830  405  675]
615.952	1.0	1222017	1223017	ELCue	ANTI	98	4	False	red	600	[ 90 570 405 675]	[1350 1830  405  675]
617.339	6.0	1223404	1229435	ShowFixation	VGS	99	4	False	lime	180	[405 885 405 675]	[1035 1515  405  675]
623.37	0.2	1229435	1229675	BlankScreen	VGS	99	4	False	lime	180	[405 885 405 675]	[1035 1515  405  675]
623.61	1.0	1229675	1230675	ELCue	VGS	99	4	False	lime	180	[405 885 405 675]	[1035 1515  405  675]
625.018	2.0	1231083	1233110	ShowFixation	VGS	100	4	False	lime	600	[1350 1830  405  675]	[ 90 570 405 675]
627.045	0.2	1233110	1233345	BlankScreen	VGS	100	4	False	lime	600	[1350 1830  405  675]	[ 90 570 405 675]
627.28	1.0	1233345	1234345	ELCue	VGS	100	4	False	lime	600	[1350 1830  405  675]	[ 90 570 405 675]
628.69	6.0	1234755	1240780	ShowFixation	ANTI	101	4	False	red	460	[405 885 405 675]	[1035 1515  405  675]
634.715	0.2	1240780	1241019	BlankScreen	ANTI	101	4	False	red	460	[405 885 405 675]	[1035 1515  405  675]
634.954	1.0	1241019	1242019	ELCue	ANTI	101	4	False	red	460	[405 885 405 675]	[1035 1515  405  675]
636.364	6.0	1242429	1248454	ShowFixation	ANTI	102	4	False	red	180	[1035 1515  405  675]	[405 885 405 675]
642.389	0.2	1248454	1248693	BlankScreen	ANTI	102	4	False	red	180	[1035 1515  405  675]	[405 885 405 675]
642.628	1.0	1248693	1249693	ELCue	ANTI	102	4	False	red	180	[1035 1515  405  675]	[405 885 405 675]
644.037	6.0	1250102	1256128	ShowFixation	VGS	103	4	False	lime	460	[1035 1515  405  675]	[405 885 405 675]
650.064	0.2	1256129	1256369	BlankScreen	VGS	103	4	False	lime	460	[1035 1515  405  675]	[405 885 405 675]
650.304	1.0	1256369	1257369	ELCue	VGS	103	4	False	lime	460	[1035 1515  405  675]	[405 885 405 675]
651.71	2.0	1257775	1259804	ShowFixation	ANTI	104	4	False	red	180	[1035 1515  405  675]	[405 885 405 675]
653.739	0.2	1259804	1260038	BlankScreen	ANTI	104	4	False	red	180	[1035 1515  405  675]	[405 885 405 675]
653.974	1.0	1260039	1261039	ELCue	ANTI	104	4	False	red	180	[1035 1515  405  675]	[405 885 405 675]
655.381	6.0	1261446	1267474	ShowFixation	ANTI	105	4	False	red	460	[405 885 405 675]	[1035 1515  405  675]
661.409	0.2	1267474	1267713	BlankScreen	ANTI	105	4	False	red	460	[405 885 405 675]	[1035 1515  405  675]
661.648	1.0	1267713	1268713	ELCue	ANTI	105	4	False	red	460	[405 885 405 675]	[1035 1515  405  675]
663.051	6.0	1269116	1275148	ShowFixation	VGS	106	4	False	lime	460	[1035 1515  405  675]	[405 885 405 675]
669.083	0.2	1275148	1275387	BlankScreen	VGS	106	4	False	lime	460	[1035 1515  405  675]	[405 885 405 675]
669.322	1.0	1275387	1276387	ELCue	VGS	106	4	False	lime	460	[1035 1515  405  675]	[405 885 405 675]
670.731	6.0	1276796	1282822	ShowFixation	VGS	107	4	False	lime	40	[ 90 570 405 675]	[1350 1830  405  675]
676.757	0.2	1282822	1283062	BlankScreen	VGS	107	4	False	lime	40	[ 90 570 405 675]	[1350 1830  405  675]
676.997	1.0	1283062	1284062	ELCue	VGS	107	4	False	lime	40	[ 90 570 405 675]	[1350 1830  405  675]
678.405	6.0	1284470	1290497	ShowFixation	ANTI	108	4	False	red	40	[1350 1830  405  675]	[ 90 570 405 675]
684.432	0.2	1290497	1290736	BlankScreen	ANTI	108	4	False	red	40	[1350 1830  405  675]	[ 90 570 405 675]
684.671	1.0	1290736	1291736	ELCue	ANTI	108	4	False	red	40	[1350 1830  405  675]	[ 90 570 405 675]
686.059	6.0	1292124	1298154	ShowFixation	VGS	109	4	False	lime	40	[ 90 570 405 675]	[1350 1830  405  675]
692.089	0.2	1298154	1298393	BlankScreen	VGS	109	4	False	lime	40	[ 90 570 405 675]	[1350 1830  405  675]
692.328	1.0	1298393	1299393	ELCue	VGS	109	4	False	lime	40	[ 90 570 405 675]	[1350 1830  405  675]
693.719	6.0	1299784	1305812	ShowFixation	ANTI	110	4	False	red	600	[ 90 570 405 675]	[1350 1830  405  675]
699.747	0.2	1305812	1306051	BlankScreen	ANTI	110	4	False	red	600	[ 90 570 405 675]	[1350 1830  405  675]
699.986	1.0	1306051	1307051	ELCue	ANTI	110	4	False	red	600	[ 90 570 405 675]	[1350 1830  405  675]
701.359	2.0	1307424	1309453	ShowFixation	ANTI	111	4	False	red	180	[1035 1515  405  675]	[405 885 405 675]
703.388	0.2	1309453	1309688	BlankScreen	ANTI	111	4	False	red	180	[1035 1515  405  675]	[405 885 405 675]
703.623	1.0	1309688	1310688	ELCue	ANTI	111	4	False	red	180	[1035 1515  405  675]	[405 885 405 675]
705.029	2.0	1311094	1313123	ShowFixation	VGS	112	4	False	lime	40	[ 90 570 405 675]	[1350 1830  405  675]
707.058	0.2	1313123	1313358	BlankScreen	VGS	112	4	False	lime	40	[ 90 570 405 675]	[1350 1830  405  675]
707.293	1.0	1313358	1314358	ELCue	VGS	112	4	False	lime	40	[ 90 570 405 675]	[1350 1830  405  675]
