onset	duration	startTime	stopTime	eventIdentifier	trial_type	trial_number	block_number	is_practice	fixation_color	cue_side	aoi_correct	aoi_incorrect
0.145	6.0	1693653	1699682	ShowFixation	VGS	1	1	True	lime	180	[405 885 405 675]	[1035 1515  405  675]
6.174	0.2	1699682	1699921	BlankScreen	VGS	1	1	True	lime	180	[405 885 405 675]	[1035 1515  405  675]
6.413	1.0	1699921	1700962	ELCue	VGS	1	1	True	lime	180	[405 885 405 675]	[1035 1515  405  675]
7.856	6.0	1701364	1708006	ShowFixation	ANTI	2	1	True	red	40	[1350 1830  405  675]	[ 90 570 405 675]
14.498	0.2	1708006	1708246	BlankScreen	ANTI	2	1	True	red	40	[1350 1830  405  675]	[ 90 570 405 675]
14.738	1.0	1708246	1709286	ELCue	ANTI	2	1	True	red	40	[1350 1830  405  675]	[ 90 570 405 675]
16.168	2.0	1709676	1712315	ShowFixation	ANTI	3	1	True	red	460	[405 885 405 675]	[1035 1515  405  675]
18.808	0.2	1712316	1712533	BlankScreen	ANTI	3	1	True	red	460	[405 885 405 675]	[1035 1515  405  675]
19.026	1.0	1712534	1713557	ELCue	ANTI	3	1	True	red	460	[405 885 405 675]	[1035 1515  405  675]
20.452	2.0	1713960	1716602	ShowFixation	ANTI	4	1	True	red	180	[1035 1515  405  675]	[405 885 405 675]
23.095	0.2	1716603	1716838	BlankScreen	ANTI	4	1	True	red	180	[1035 1515  405  675]	[405 885 405 675]
23.33	1.0	1716838	1717879	ELCue	ANTI	4	1	True	red	180	[1035 1515  405  675]	[405 885 405 675]
24.781	2.0	1718289	1720923	ShowFixation	VGS	5	1	True	lime	180	[405 885 405 675]	[1035 1515  405  675]
27.416	0.2	1720924	1721158	BlankScreen	VGS	5	1	True	lime	180	[405 885 405 675]	[1035 1515  405  675]
27.65	1.0	1721158	1722199	ELCue	VGS	5	1	True	lime	180	[405 885 405 675]	[1035 1515  405  675]
29.095	2.0	1722603	1725227	ShowFixation	VGS	6	1	True	lime	600	[1350 1830  405  675]	[ 90 570 405 675]
31.719	0.2	1725227	1725446	BlankScreen	VGS	6	1	True	lime	600	[1350 1830  405  675]	[ 90 570 405 675]
31.938	1.0	1725446	1726470	ELCue	VGS	6	1	True	lime	600	[1350 1830  405  675]	[ 90 570 405 675]
33.365	6.0	1726873	1733515	ShowFixation	VGS	7	1	True	lime	460	[1035 1515  405  675]	[405 885 405 675]
40.007	0.2	1733515	1733755	BlankScreen	VGS	7	1	True	lime	460	[1035 1515  405  675]	[405 885 405 675]
40.247	1.0	1733755	1734795	ELCue	VGS	7	1	True	lime	460	[1035 1515  405  675]	[405 885 405 675]
41.691	6.0	1735199	1741824	ShowFixation	VGS	8	1	True	lime	40	[ 90 570 405 675]	[1350 1830  405  675]
48.316	0.2	1741824	1742063	BlankScreen	VGS	8	1	True	lime	40	[ 90 570 405 675]	[1350 1830  405  675]
48.555	1.0	1742063	1743104	ELCue	VGS	8	1	True	lime	40	[ 90 570 405 675]	[1350 1830  405  675]
49.968	6.0	1743476	1750149	ShowFixation	VGS	9	1	True	lime	600	[1350 1830  405  675]	[ 90 570 405 675]
56.641	0.2	1750149	1750388	BlankScreen	VGS	9	1	True	lime	600	[1350 1830  405  675]	[ 90 570 405 675]
56.88	1.0	1750388	1751428	ELCue	VGS	9	1	True	lime	600	[1350 1830  405  675]	[ 90 570 405 675]
58.328	6.0	1751836	1758457	ShowFixation	ANTI	10	1	True	red	460	[405 885 405 675]	[1035 1515  405  675]
64.949	0.2	1758457	1758697	BlankScreen	ANTI	10	1	True	red	460	[405 885 405 675]	[1035 1515  405  675]
65.189	1.0	1758697	1759736	ELCue	ANTI	10	1	True	red	460	[405 885 405 675]	[1035 1515  405  675]
66.634	2.0	1760142	1762765	ShowFixation	ANTI	11	1	True	red	40	[1350 1830  405  675]	[ 90 570 405 675]
69.257	0.2	1762765	1762984	BlankScreen	ANTI	11	1	True	red	40	[1350 1830  405  675]	[ 90 570 405 675]
69.476	1.0	1762984	1764007	ELCue	ANTI	11	1	True	red	40	[1350 1830  405  675]	[ 90 570 405 675]
70.905	6.0	1764413	1771053	ShowFixation	ANTI	12	1	True	red	600	[ 90 570 405 675]	[1350 1830  405  675]
77.545	0.2	1771053	1771292	BlankScreen	ANTI	12	1	True	red	600	[ 90 570 405 675]	[1350 1830  405  675]
77.784	1.0	1771292	1772333	ELCue	ANTI	12	1	True	red	600	[ 90 570 405 675]	[1350 1830  405  675]
79.23	6.0	1772738	1779378	ShowFixation	ANTI	13	1	True	red	180	[1035 1515  405  675]	[405 885 405 675]
85.87	0.2	1779378	1779617	BlankScreen	ANTI	13	1	True	red	180	[1035 1515  405  675]	[405 885 405 675]
86.109	1.0	1779617	1780658	ELCue	ANTI	13	1	True	red	180	[1035 1515  405  675]	[405 885 405 675]
87.552	2.0	1781060	1783703	ShowFixation	VGS	14	1	True	lime	40	[ 90 570 405 675]	[1350 1830  405  675]
90.195	0.2	1783703	1783938	BlankScreen	VGS	14	1	True	lime	40	[ 90 570 405 675]	[1350 1830  405  675]
90.43	1.0	1783938	1784979	ELCue	VGS	14	1	True	lime	40	[ 90 570 405 675]	[1350 1830  405  675]
91.876	2.0	1785384	1788024	ShowFixation	VGS	15	1	True	lime	460	[1035 1515  405  675]	[405 885 405 675]
94.516	0.2	1788024	1788259	BlankScreen	VGS	15	1	True	lime	460	[1035 1515  405  675]	[405 885 405 675]
94.751	1.0	1788259	1789300	ELCue	VGS	15	1	True	lime	460	[1035 1515  405  675]	[405 885 405 675]
96.196	2.0	1789704	1792345	ShowFixation	ANTI	16	1	True	red	600	[ 90 570 405 675]	[1350 1830  405  675]
98.837	0.2	1792345	1792580	BlankScreen	ANTI	16	1	True	red	600	[ 90 570 405 675]	[1350 1830  405  675]
99.072	1.0	1792580	1793617	ELCue	ANTI	16	1	True	red	600	[ 90 570 405 675]	[1350 1830  405  675]
112.801	6.0	1806309	1812344	ShowFixation	ANTI	17	2	False	red	600	[ 90 570 405 675]	[1350 1830  405  675]
118.836	0.2	1812344	1812583	BlankScreen	ANTI	17	2	False	red	600	[ 90 570 405 675]	[1350 1830  405  675]
119.075	1.0	1812583	1813583	ELCue	ANTI	17	2	False	red	600	[ 90 570 405 675]	[1350 1830  405  675]
120.484	6.0	1813992	1820018	ShowFixation	ANTI	18	2	False	red	460	[405 885 405 675]	[1035 1515  405  675]
126.51	0.2	1820018	1820257	BlankScreen	ANTI	18	2	False	red	460	[405 885 405 675]	[1035 1515  405  675]
126.749	1.0	1820257	1821257	ELCue	ANTI	18	2	False	red	460	[405 885 405 675]	[1035 1515  405  675]
128.157	2.0	1821665	1823692	ShowFixation	ANTI	19	2	False	red	600	[ 90 570 405 675]	[1350 1830  405  675]
130.184	0.2	1823692	1823928	BlankScreen	ANTI	19	2	False	red	600	[ 90 570 405 675]	[1350 1830  405  675]
130.42	1.0	1823928	1824928	ELCue	ANTI	19	2	False	red	600	[ 90 570 405 675]	[1350 1830  405  675]
131.825	2.0	1825333	1827363	ShowFixation	ANTI	20	2	False	red	600	[ 90 570 405 675]	[1350 1830  405  675]
133.855	0.2	1827363	1827598	BlankScreen	ANTI	20	2	False	red	600	[ 90 570 405 675]	[1350 1830  405  675]
134.09	1.0	1827598	1828598	ELCue	ANTI	20	2	False	red	600	[ 90 570 405 675]	[1350 1830  405  675]
135.497	2.0	1829005	1831033	ShowFixation	VGS	21	2	False	lime	40	[ 90 570 405 675]	[1350 1830  405  675]
137.525	0.2	1831033	1831268	BlankScreen	VGS	21	2	False	lime	40	[ 90 570 405 675]	[1350 1830  405  675]
137.76	1.0	1831268	1832268	ELCue	VGS	21	2	False	lime	40	[ 90 570 405 675]	[1350 1830  405  675]
139.171	2.0	1832679	1834703	ShowFixation	ANTI	22	2	False	red	40	[1350 1830  405  675]	[ 90 570 405 675]
141.195	0.2	1834703	1834939	BlankScreen	ANTI	22	2	False	red	40	[1350 1830  405  675]	[ 90 570 405 675]
141.431	1.0	1834939	1835939	ELCue	ANTI	22	2	False	red	40	[1350 1830  405  675]	[ 90 570 405 675]
142.839	6.0	1836347	1842373	ShowFixation	ANTI	23	2	False	red	40	[1350 1830  405  675]	[ 90 570 405 675]
148.865	0.2	1842373	1842613	BlankScreen	ANTI	23	2	False	red	40	[1350 1830  405  675]	[ 90 570 405 675]
149.105	1.0	1842613	1843613	ELCue	ANTI	23	2	False	red	40	[1350 1830  405  675]	[ 90 570 405 675]
150.497	6.0	1844005	1850031	ShowFixation	VGS	24	2	False	lime	180	[405 885 405 675]	[1035 1515  405  675]
156.523	0.2	1850031	1850270	BlankScreen	VGS	24	2	False	lime	180	[405 885 405 675]	[1035 1515  405  675]
156.762	1.0	1850270	1851270	ELCue	VGS	24	2	False	lime	180	[405 885 405 675]	[1035 1515  405  675]
158.174	2.0	1851682	1853722	ShowFixation	VGS	25	2	False	lime	460	[1035 1515  405  675]	[405 885 405 675]
160.215	0.2	1853723	1853957	BlankScreen	VGS	25	2	False	lime	460	[1035 1515  405  675]	[405 885 405 675]
160.45	1.0	1853958	1854958	ELCue	VGS	25	2	False	lime	460	[1035 1515  405  675]	[405 885 405 675]
161.859	2.0	1855367	1857392	ShowFixation	VGS	26	2	False	lime	600	[1350 1830  405  675]	[ 90 570 405 675]
163.885	0.2	1857393	1857628	BlankScreen	VGS	26	2	False	lime	600	[1350 1830  405  675]	[ 90 570 405 675]
164.121	1.0	1857629	1858629	ELCue	VGS	26	2	False	lime	600	[1350 1830  405  675]	[ 90 570 405 675]
165.531	2.0	1859039	1861080	ShowFixation	ANTI	27	2	False	red	180	[1035 1515  405  675]	[405 885 405 675]
167.572	0.2	1861080	1861316	BlankScreen	ANTI	27	2	False	red	180	[1035 1515  405  675]	[405 885 405 675]
167.808	1.0	1861316	1862316	ELCue	ANTI	27	2	False	red	180	[1035 1515  405  675]	[405 885 405 675]
169.209	6.0	1862717	1868751	ShowFixation	ANTI	28	2	False	red	600	[ 90 570 405 675]	[1350 1830  405  675]
175.243	0.2	1868751	1868990	BlankScreen	ANTI	28	2	False	red	600	[ 90 570 405 675]	[1350 1830  405  675]
175.482	1.0	1868990	1869990	ELCue	ANTI	28	2	False	red	600	[ 90 570 405 675]	[1350 1830  405  675]
176.889	6.0	1870397	1876425	ShowFixation	ANTI	29	2	False	red	180	[1035 1515  405  675]	[405 885 405 675]
182.917	0.2	1876425	1876664	BlankScreen	ANTI	29	2	False	red	180	[1035 1515  405  675]	[405 885 405 675]
183.156	1.0	1876664	1877664	ELCue	ANTI	29	2	False	red	180	[1035 1515  405  675]	[405 885 405 675]
184.539	6.0	1878047	1884082	ShowFixation	VGS	30	2	False	lime	460	[1035 1515  405  675]	[405 885 405 675]
190.574	0.2	1884082	1884322	BlankScreen	VGS	30	2	False	lime	460	[1035 1515  405  675]	[405 885 405 675]
190.814	1.0	1884322	1885322	ELCue	VGS	30	2	False	lime	460	[1035 1515  405  675]	[405 885 405 675]
192.225	2.0	1885733	1887773	ShowFixation	VGS	31	2	False	lime	600	[1350 1830  405  675]	[ 90 570 405 675]
194.265	0.2	1887773	1888009	BlankScreen	VGS	31	2	False	lime	600	[1350 1830  405  675]	[ 90 570 405 675]
194.501	1.0	1888009	1889009	ELCue	VGS	31	2	False	lime	600	[1350 1830  405  675]	[ 90 570 405 675]
195.908	6.0	1889416	1895444	ShowFixation	VGS	32	2	False	lime	600	[1350 1830  405  675]	[ 90 570 405 675]
201.936	0.2	1895444	1895683	BlankScreen	VGS	32	2	False	lime	600	[1350 1830  405  675]	[ 90 570 405 675]
202.175	1.0	1895683	1896683	ELCue	VGS	32	2	False	lime	600	[1350 1830  405  675]	[ 90 570 405 675]
203.58	6.0	1897088	1903118	ShowFixation	VGS	33	2	False	lime	460	[1035 1515  405  675]	[405 885 405 675]
209.61	0.2	1903118	1903357	BlankScreen	VGS	33	2	False	lime	460	[1035 1515  405  675]	[405 885 405 675]
209.849	1.0	1903357	1904357	ELCue	VGS	33	2	False	lime	460	[1035 1515  405  675]	[405 885 405 675]
211.239	6.0	1904747	1910775	ShowFixation	ANTI	34	2	False	red	40	[1350 1830  405  675]	[ 90 570 405 675]
217.267	0.2	1910775	1911015	BlankScreen	ANTI	34	2	False	red	40	[1350 1830  405  675]	[ 90 570 405 675]
217.507	1.0	1911015	1912015	ELCue	ANTI	34	2	False	red	40	[1350 1830  405  675]	[ 90 570 405 675]
218.913	6.0	1912421	1918450	ShowFixation	ANTI	35	2	False	red	180	[1035 1515  405  675]	[405 885 405 675]
224.942	0.2	1918450	1918689	BlankScreen	ANTI	35	2	False	red	180	[1035 1515  405  675]	[405 885 405 675]
225.181	1.0	1918689	1919689	ELCue	ANTI	35	2	False	red	180	[1035 1515  405  675]	[405 885 405 675]
226.59	2.0	1920098	1922124	ShowFixation	VGS	36	2	False	lime	40	[ 90 570 405 675]	[1350 1830  405  675]
228.616	0.2	1922124	1922359	BlankScreen	VGS	36	2	False	lime	40	[ 90 570 405 675]	[1350 1830  405  675]
228.851	1.0	1922359	1923359	ELCue	VGS	36	2	False	lime	40	[ 90 570 405 675]	[1350 1830  405  675]
230.256	6.0	1923764	1929794	ShowFixation	VGS	37	2	False	lime	40	[ 90 570 405 675]	[1350 1830  405  675]
236.286	0.2	1929794	1930033	BlankScreen	VGS	37	2	False	lime	40	[ 90 570 405 675]	[1350 1830  405  675]
236.525	1.0	1930033	1931033	ELCue	VGS	37	2	False	lime	40	[ 90 570 405 675]	[1350 1830  405  675]
237.9	2.0	1931408	1933435	ShowFixation	VGS	38	2	False	lime	460	[1035 1515  405  675]	[405 885 405 675]
239.927	0.2	1933435	1933670	BlankScreen	VGS	38	2	False	lime	460	[1035 1515  405  675]	[405 885 405 675]
240.162	1.0	1933670	1934670	ELCue	VGS	38	2	False	lime	460	[1035 1515  405  675]	[405 885 405 675]
241.568	2.0	1935076	1937105	ShowFixation	VGS	39	2	False	lime	180	[405 885 405 675]	[1035 1515  405  675]
243.597	0.2	1937105	1937341	BlankScreen	VGS	39	2	False	lime	180	[405 885 405 675]	[1035 1515  405  675]
243.833	1.0	1937341	1938341	ELCue	VGS	39	2	False	lime	180	[405 885 405 675]	[1035 1515  405  675]
245.241	2.0	1938749	1940776	ShowFixation	ANTI	40	2	False	red	460	[405 885 405 675]	[1035 1515  405  675]
247.268	0.2	1940776	1941011	BlankScreen	ANTI	40	2	False	red	460	[405 885 405 675]	[1035 1515  405  675]
247.503	1.0	1941011	1942011	ELCue	ANTI	40	2	False	red	460	[405 885 405 675]	[1035 1515  405  675]
248.895	2.0	1942403	1944429	ShowFixation	ANTI	41	2	False	red	180	[1035 1515  405  675]	[405 885 405 675]
250.921	0.2	1944429	1944665	BlankScreen	ANTI	41	2	False	red	180	[1035 1515  405  675]	[405 885 405 675]
251.157	1.0	1944665	1945665	ELCue	ANTI	41	2	False	red	180	[1035 1515  405  675]	[405 885 405 675]
252.548	6.0	1946056	1952083	ShowFixation	ANTI	42	2	False	red	460	[405 885 405 675]	[1035 1515  405  675]
258.575	0.2	1952083	1952322	BlankScreen	ANTI	42	2	False	red	460	[405 885 405 675]	[1035 1515  405  675]
258.814	1.0	1952322	1953322	ELCue	ANTI	42	2	False	red	460	[405 885 405 675]	[1035 1515  405  675]
260.224	2.0	1953732	1955757	ShowFixation	ANTI	43	2	False	red	460	[405 885 405 675]	[1035 1515  405  675]
262.249	0.2	1955757	1955992	BlankScreen	ANTI	43	2	False	red	460	[405 885 405 675]	[1035 1515  405  675]
262.484	1.0	1955992	1956992	ELCue	ANTI	43	2	False	red	460	[405 885 405 675]	[1035 1515  405  675]
263.897	6.0	1957405	1963445	ShowFixation	VGS	44	2	False	lime	40	[ 90 570 405 675]	[1350 1830  405  675]
269.937	0.2	1963445	1963684	BlankScreen	VGS	44	2	False	lime	40	[ 90 570 405 675]	[1350 1830  405  675]
270.176	1.0	1963684	1964684	ELCue	VGS	44	2	False	lime	40	[ 90 570 405 675]	[1350 1830  405  675]
271.588	6.0	1965096	1971136	ShowFixation	VGS	45	2	False	lime	600	[1350 1830  405  675]	[ 90 570 405 675]
277.628	0.2	1971136	1971375	BlankScreen	VGS	45	2	False	lime	600	[1350 1830  405  675]	[ 90 570 405 675]
277.867	1.0	1971375	1972375	ELCue	VGS	45	2	False	lime	600	[1350 1830  405  675]	[ 90 570 405 675]
279.272	2.0	1972780	1974809	ShowFixation	ANTI	46	2	False	red	40	[1350 1830  405  675]	[ 90 570 405 675]
281.301	0.2	1974809	1975045	BlankScreen	ANTI	46	2	False	red	40	[1350 1830  405  675]	[ 90 570 405 675]
281.537	1.0	1975045	1976045	ELCue	ANTI	46	2	False	red	40	[1350 1830  405  675]	[ 90 570 405 675]
282.945	2.0	1976453	1978480	ShowFixation	VGS	47	2	False	lime	180	[405 885 405 675]	[1035 1515  405  675]
284.972	0.2	1978480	1978715	BlankScreen	VGS	47	2	False	lime	180	[405 885 405 675]	[1035 1515  405  675]
285.207	1.0	1978715	1979715	ELCue	VGS	47	2	False	lime	180	[405 885 405 675]	[1035 1515  405  675]
286.617	6.0	1980125	1986150	ShowFixation	VGS	48	2	False	lime	180	[405 885 405 675]	[1035 1515  405  675]
292.642	0.2	1986150	1986389	BlankScreen	VGS	48	2	False	lime	180	[405 885 405 675]	[1035 1515  405  675]
292.881	1.0	1986389	1987389	ELCue	VGS	48	2	False	lime	180	[405 885 405 675]	[1035 1515  405  675]
335.754	2.0	2029262	2031299	ShowFixation	ANTI	49	3	False	red	40	[1350 1830  405  675]	[ 90 570 405 675]
337.791	0.2	2031299	2031535	BlankScreen	ANTI	49	3	False	red	40	[1350 1830  405  675]	[ 90 570 405 675]
338.027	1.0	2031535	2032535	ELCue	ANTI	49	3	False	red	40	[1350 1830  405  675]	[ 90 570 405 675]
339.434	2.0	2032942	2034970	ShowFixation	ANTI	50	3	False	red	180	[1035 1515  405  675]	[405 885 405 675]
341.462	0.2	2034970	2035205	BlankScreen	ANTI	50	3	False	red	180	[1035 1515  405  675]	[405 885 405 675]
341.697	1.0	2035205	2036205	ELCue	ANTI	50	3	False	red	180	[1035 1515  405  675]	[405 885 405 675]
343.101	6.0	2036609	2042640	ShowFixation	ANTI	51	3	False	red	600	[ 90 570 405 675]	[1350 1830  405  675]
349.132	0.2	2042640	2042879	BlankScreen	ANTI	51	3	False	red	600	[ 90 570 405 675]	[1350 1830  405  675]
349.371	1.0	2042879	2043879	ELCue	ANTI	51	3	False	red	600	[ 90 570 405 675]	[1350 1830  405  675]
350.776	2.0	2044284	2046314	ShowFixation	ANTI	52	3	False	red	600	[ 90 570 405 675]	[1350 1830  405  675]
352.806	0.2	2046314	2046550	BlankScreen	ANTI	52	3	False	red	600	[ 90 570 405 675]	[1350 1830  405  675]
353.042	1.0	2046550	2047550	ELCue	ANTI	52	3	False	red	600	[ 90 570 405 675]	[1350 1830  405  675]
354.449	2.0	2047957	2049984	ShowFixation	ANTI	53	3	False	red	600	[ 90 570 405 675]	[1350 1830  405  675]
356.476	0.2	2049984	2050220	BlankScreen	ANTI	53	3	False	red	600	[ 90 570 405 675]	[1350 1830  405  675]
356.712	1.0	2050220	2051220	ELCue	ANTI	53	3	False	red	600	[ 90 570 405 675]	[1350 1830  405  675]
358.118	6.0	2051626	2057655	ShowFixation	ANTI	54	3	False	red	180	[1035 1515  405  675]	[405 885 405 675]
364.147	0.2	2057655	2057894	BlankScreen	ANTI	54	3	False	red	180	[1035 1515  405  675]	[405 885 405 675]
364.386	1.0	2057894	2058894	ELCue	ANTI	54	3	False	red	180	[1035 1515  405  675]	[405 885 405 675]
365.795	2.0	2059303	2061329	ShowFixation	VGS	55	3	False	lime	40	[ 90 570 405 675]	[1350 1830  405  675]
367.821	0.2	2061329	2061564	BlankScreen	VGS	55	3	False	lime	40	[ 90 570 405 675]	[1350 1830  405  675]
368.056	1.0	2061564	2062564	ELCue	VGS	55	3	False	lime	40	[ 90 570 405 675]	[1350 1830  405  675]
369.467	6.0	2062975	2068999	ShowFixation	VGS	56	3	False	lime	460	[1035 1515  405  675]	[405 885 405 675]
375.491	0.2	2068999	2069239	BlankScreen	VGS	56	3	False	lime	460	[1035 1515  405  675]	[405 885 405 675]
375.731	1.0	2069239	2070239	ELCue	VGS	56	3	False	lime	460	[1035 1515  405  675]	[405 885 405 675]
377.143	6.0	2070651	2076690	ShowFixation	VGS	57	3	False	lime	40	[ 90 570 405 675]	[1350 1830  405  675]
383.182	0.2	2076690	2076930	BlankScreen	VGS	57	3	False	lime	40	[ 90 570 405 675]	[1350 1830  405  675]
383.422	1.0	2076930	2077930	ELCue	VGS	57	3	False	lime	40	[ 90 570 405 675]	[1350 1830  405  675]
384.807	6.0	2078315	2084348	ShowFixation	ANTI	58	3	False	red	460	[405 885 405 675]	[1035 1515  405  675]
390.84	0.2	2084348	2084587	BlankScreen	ANTI	58	3	False	red	460	[405 885 405 675]	[1035 1515  405  675]
391.079	1.0	2084587	2085587	ELCue	ANTI	58	3	False	red	460	[405 885 405 675]	[1035 1515  405  675]
392.484	2.0	2085992	2088022	ShowFixation	VGS	59	3	False	lime	600	[1350 1830  405  675]	[ 90 570 405 675]
394.514	0.2	2088022	2088257	BlankScreen	VGS	59	3	False	lime	600	[1350 1830  405  675]	[ 90 570 405 675]
394.749	1.0	2088257	2089257	ELCue	VGS	59	3	False	lime	600	[1350 1830  405  675]	[ 90 570 405 675]
396.159	2.0	2089667	2091692	ShowFixation	VGS	60	3	False	lime	180	[405 885 405 675]	[1035 1515  405  675]
398.184	0.2	2091692	2091928	BlankScreen	VGS	60	3	False	lime	180	[405 885 405 675]	[1035 1515  405  675]
398.42	1.0	2091928	2092928	ELCue	VGS	60	3	False	lime	180	[405 885 405 675]	[1035 1515  405  675]
399.83	6.0	2093338	2099363	ShowFixation	VGS	61	3	False	lime	600	[1350 1830  405  675]	[ 90 570 405 675]
405.856	0.2	2099364	2099602	BlankScreen	VGS	61	3	False	lime	600	[1350 1830  405  675]	[ 90 570 405 675]
406.094	1.0	2099602	2100602	ELCue	VGS	61	3	False	lime	600	[1350 1830  405  675]	[ 90 570 405 675]
407.499	2.0	2101007	2103038	ShowFixation	VGS	62	3	False	lime	180	[405 885 405 675]	[1035 1515  405  675]
409.53	0.2	2103038	2103272	BlankScreen	VGS	62	3	False	lime	180	[405 885 405 675]	[1035 1515  405  675]
409.764	1.0	2103272	2104272	ELCue	VGS	62	3	False	lime	180	[405 885 405 675]	[1035 1515  405  675]
411.176	6.0	2104684	2110725	ShowFixation	ANTI	63	3	False	red	180	[1035 1515  405  675]	[405 885 405 675]
417.217	0.2	2110725	2110964	BlankScreen	ANTI	63	3	False	red	180	[1035 1515  405  675]	[405 885 405 675]
417.456	1.0	2110964	2111964	ELCue	ANTI	63	3	False	red	180	[1035 1515  405  675]	[405 885 405 675]
418.866	2.0	2112374	2114399	ShowFixation	VGS	64	3	False	lime	40	[ 90 570 405 675]	[1350 1830  405  675]
420.891	0.2	2114399	2114634	BlankScreen	VGS	64	3	False	lime	40	[ 90 570 405 675]	[1350 1830  405  675]
421.126	1.0	2114634	2115634	ELCue	VGS	64	3	False	lime	40	[ 90 570 405 675]	[1350 1830  405  675]
422.536	6.0	2116044	2122069	ShowFixation	VGS	65	3	False	lime	180	[405 885 405 675]	[1035 1515  405  675]
428.561	0.2	2122069	2122309	BlankScreen	VGS	65	3	False	lime	180	[405 885 405 675]	[1035 1515  405  675]
428.801	1.0	2122309	2123309	ELCue	VGS	65	3	False	lime	180	[405 885 405 675]	[1035 1515  405  675]
430.173	2.0	2123681	2125710	ShowFixation	ANTI	66	3	False	red	180	[1035 1515  405  675]	[405 885 405 675]
432.202	0.2	2125710	2125946	BlankScreen	ANTI	66	3	False	red	180	[1035 1515  405  675]	[405 885 405 675]
432.438	1.0	2125946	2126946	ELCue	ANTI	66	3	False	red	180	[1035 1515  405  675]	[405 885 405 675]
433.844	2.0	2127352	2129381	ShowFixation	ANTI	67	3	False	red	460	[405 885 405 675]	[1035 1515  405  675]
435.873	0.2	2129381	2129616	BlankScreen	ANTI	67	3	False	red	460	[405 885 405 675]	[1035 1515  405  675]
436.108	1.0	2129616	2130616	ELCue	ANTI	67	3	False	red	460	[405 885 405 675]	[1035 1515  405  675]
437.517	2.0	2131025	2133051	ShowFixation	VGS	68	3	False	lime	460	[1035 1515  405  675]	[405 885 405 675]
439.543	0.2	2133051	2133286	BlankScreen	VGS	68	3	False	lime	460	[1035 1515  405  675]	[405 885 405 675]
439.778	1.0	2133286	2134286	ELCue	VGS	68	3	False	lime	460	[1035 1515  405  675]	[405 885 405 675]
441.189	6.0	2134697	2140738	ShowFixation	ANTI	69	3	False	red	40	[1350 1830  405  675]	[ 90 570 405 675]
447.23	0.2	2140738	2140977	BlankScreen	ANTI	69	3	False	red	40	[1350 1830  405  675]	[ 90 570 405 675]
447.469	1.0	2140977	2141977	ELCue	ANTI	69	3	False	red	40	[1350 1830  405  675]	[ 90 570 405 675]
448.881	2.0	2142389	2144429	ShowFixation	VGS	70	3	False	lime	460	[1035 1515  405  675]	[405 885 405 675]
450.921	0.2	2144429	2144664	BlankScreen	VGS	70	3	False	lime	460	[1035 1515  405  675]	[405 885 405 675]
451.156	1.0	2144664	2145664	ELCue	VGS	70	3	False	lime	460	[1035 1515  405  675]	[405 885 405 675]
452.567	2.0	2146075	2148116	ShowFixation	ANTI	71	3	False	red	40	[1350 1830  405  675]	[ 90 570 405 675]
454.608	0.2	2148116	2148351	BlankScreen	ANTI	71	3	False	red	40	[1350 1830  405  675]	[ 90 570 405 675]
454.843	1.0	2148351	2149351	ELCue	ANTI	71	3	False	red	40	[1350 1830  405  675]	[ 90 570 405 675]
456.251	2.0	2149759	2151786	ShowFixation	ANTI	72	3	False	red	460	[405 885 405 675]	[1035 1515  405  675]
458.278	0.2	2151786	2152021	BlankScreen	ANTI	72	3	False	red	460	[405 885 405 675]	[1035 1515  405  675]
458.513	1.0	2152021	2153021	ELCue	ANTI	72	3	False	red	460	[405 885 405 675]	[1035 1515  405  675]
459.921	6.0	2153429	2159456	ShowFixation	VGS	73	3	False	lime	600	[1350 1830  405  675]	[ 90 570 405 675]
465.948	0.2	2159456	2159696	BlankScreen	VGS	73	3	False	lime	600	[1350 1830  405  675]	[ 90 570 405 675]
466.188	1.0	2159696	2160696	ELCue	VGS	73	3	False	lime	600	[1350 1830  405  675]	[ 90 570 405 675]
467.596	6.0	2161104	2167131	ShowFixation	VGS	74	3	False	lime	180	[405 885 405 675]	[1035 1515  405  675]
473.623	0.2	2167131	2167370	BlankScreen	VGS	74	3	False	lime	180	[405 885 405 675]	[1035 1515  405  675]
473.862	1.0	2167370	2168370	ELCue	VGS	74	3	False	lime	180	[405 885 405 675]	[1035 1515  405  675]
475.27	2.0	2168778	2170805	ShowFixation	VGS	75	3	False	lime	600	[1350 1830  405  675]	[ 90 570 405 675]
477.297	0.2	2170805	2171040	BlankScreen	VGS	75	3	False	lime	600	[1350 1830  405  675]	[ 90 570 405 675]
477.532	1.0	2171040	2172040	ELCue	VGS	75	3	False	lime	600	[1350 1830  405  675]	[ 90 570 405 675]
478.938	6.0	2172446	2178475	ShowFixation	ANTI	76	3	False	red	600	[ 90 570 405 675]	[1350 1830  405  675]
484.967	0.2	2178475	2178714	BlankScreen	ANTI	76	3	False	red	600	[ 90 570 405 675]	[1350 1830  405  675]
485.206	1.0	2178714	2179714	ELCue	ANTI	76	3	False	red	600	[ 90 570 405 675]	[1350 1830  405  675]
486.613	6.0	2180121	2186149	ShowFixation	ANTI	77	3	False	red	460	[405 885 405 675]	[1035 1515  405  675]
492.641	0.2	2186149	2186389	BlankScreen	ANTI	77	3	False	red	460	[405 885 405 675]	[1035 1515  405  675]
492.881	1.0	2186389	2187389	ELCue	ANTI	77	3	False	red	460	[405 885 405 675]	[1035 1515  405  675]
494.291	6.0	2187799	2193824	ShowFixation	ANTI	78	3	False	red	40	[1350 1830  405  675]	[ 90 570 405 675]
500.316	0.2	2193824	2194063	BlankScreen	ANTI	78	3	False	red	40	[1350 1830  405  675]	[ 90 570 405 675]
500.555	1.0	2194063	2195063	ELCue	ANTI	78	3	False	red	40	[1350 1830  405  675]	[ 90 570 405 675]
501.964	6.0	2195472	2201498	ShowFixation	VGS	79	3	False	lime	460	[1035 1515  405  675]	[405 885 405 675]
507.99	0.2	2201498	2201737	BlankScreen	VGS	79	3	False	lime	460	[1035 1515  405  675]	[405 885 405 675]
508.229	1.0	2201737	2202737	ELCue	VGS	79	3	False	lime	460	[1035 1515  405  675]	[405 885 405 675]
509.641	6.0	2203149	2209189	ShowFixation	VGS	80	3	False	lime	40	[ 90 570 405 675]	[1350 1830  405  675]
515.681	0.2	2209189	2209428	BlankScreen	VGS	80	3	False	lime	40	[ 90 570 405 675]	[1350 1830  405  675]
515.92	1.0	2209428	2210428	ELCue	VGS	80	3	False	lime	40	[ 90 570 405 675]	[1350 1830  405  675]
523.65	6.0	2217158	2223186	ShowFixation	VGS	81	4	False	lime	40	[ 90 570 405 675]	[1350 1830  405  675]
529.679	0.2	2223187	2223426	BlankScreen	VGS	81	4	False	lime	40	[ 90 570 405 675]	[1350 1830  405  675]
529.918	1.0	2223426	2224426	ELCue	VGS	81	4	False	lime	40	[ 90 570 405 675]	[1350 1830  405  675]
531.323	2.0	2224831	2226861	ShowFixation	VGS	82	4	False	lime	40	[ 90 570 405 675]	[1350 1830  405  675]
533.353	0.2	2226861	2227097	BlankScreen	VGS	82	4	False	lime	40	[ 90 570 405 675]	[1350 1830  405  675]
533.589	1.0	2227097	2228097	ELCue	VGS	82	4	False	lime	40	[ 90 570 405 675]	[1350 1830  405  675]
534.999	2.0	2228507	2230548	ShowFixation	VGS	83	4	False	lime	600	[1350 1830  405  675]	[ 90 570 405 675]
537.04	0.2	2230548	2230784	BlankScreen	VGS	83	4	False	lime	600	[1350 1830  405  675]	[ 90 570 405 675]
537.276	1.0	2230784	2231784	ELCue	VGS	83	4	False	lime	600	[1350 1830  405  675]	[ 90 570 405 675]
538.683	6.0	2232191	2238218	ShowFixation	VGS	84	4	False	lime	460	[1035 1515  405  675]	[405 885 405 675]
544.71	0.2	2238218	2238458	BlankScreen	VGS	84	4	False	lime	460	[1035 1515  405  675]	[405 885 405 675]
544.95	1.0	2238458	2239458	ELCue	VGS	84	4	False	lime	460	[1035 1515  405  675]	[405 885 405 675]
546.359	6.0	2239867	2245893	ShowFixation	VGS	85	4	False	lime	40	[ 90 570 405 675]	[1350 1830  405  675]
552.385	0.2	2245893	2246132	BlankScreen	VGS	85	4	False	lime	40	[ 90 570 405 675]	[1350 1830  405  675]
552.624	1.0	2246132	2247132	ELCue	VGS	85	4	False	lime	40	[ 90 570 405 675]	[1350 1830  405  675]
554.034	6.0	2247542	2253567	ShowFixation	VGS	86	4	False	lime	460	[1035 1515  405  675]	[405 885 405 675]
560.059	0.2	2253567	2253806	BlankScreen	VGS	86	4	False	lime	460	[1035 1515  405  675]	[405 885 405 675]
560.298	1.0	2253806	2254806	ELCue	VGS	86	4	False	lime	460	[1035 1515  405  675]	[405 885 405 675]
561.708	2.0	2255216	2257241	ShowFixation	VGS	87	4	False	lime	460	[1035 1515  405  675]	[405 885 405 675]
563.733	0.2	2257241	2257477	BlankScreen	VGS	87	4	False	lime	460	[1035 1515  405  675]	[405 885 405 675]
563.969	1.0	2257477	2258477	ELCue	VGS	87	4	False	lime	460	[1035 1515  405  675]	[405 885 405 675]
565.378	2.0	2258886	2260912	ShowFixation	VGS	88	4	False	lime	460	[1035 1515  405  675]	[405 885 405 675]
567.404	0.2	2260912	2261147	BlankScreen	VGS	88	4	False	lime	460	[1035 1515  405  675]	[405 885 405 675]
567.639	1.0	2261147	2262147	ELCue	VGS	88	4	False	lime	460	[1035 1515  405  675]	[405 885 405 675]
569.051	6.0	2262559	2268598	ShowFixation	ANTI	89	4	False	red	600	[ 90 570 405 675]	[1350 1830  405  675]
575.09	0.2	2268598	2268838	BlankScreen	ANTI	89	4	False	red	600	[ 90 570 405 675]	[1350 1830  405  675]
575.33	1.0	2268838	2269838	ELCue	ANTI	89	4	False	red	600	[ 90 570 405 675]	[1350 1830  405  675]
576.74	2.0	2270248	2272289	ShowFixation	ANTI	90	4	False	red	600	[ 90 570 405 675]	[1350 1830  405  675]
578.781	0.2	2272289	2272525	BlankScreen	ANTI	90	4	False	red	600	[ 90 570 405 675]	[1350 1830  405  675]
579.017	1.0	2272525	2273525	ELCue	ANTI	90	4	False	red	600	[ 90 570 405 675]	[1350 1830  405  675]
580.423	6.0	2273931	2279960	ShowFixation	ANTI	91	4	False	red	40	[1350 1830  405  675]	[ 90 570 405 675]
586.452	0.2	2279960	2280199	BlankScreen	ANTI	91	4	False	red	40	[1350 1830  405  675]	[ 90 570 405 675]
586.691	1.0	2280199	2281199	ELCue	ANTI	91	4	False	red	40	[1350 1830  405  675]	[ 90 570 405 675]
588.104	6.0	2281612	2287651	ShowFixation	ANTI	92	4	False	red	180	[1035 1515  405  675]	[405 885 405 675]
594.143	0.2	2287651	2287890	BlankScreen	ANTI	92	4	False	red	180	[1035 1515  405  675]	[405 885 405 675]
594.382	1.0	2287890	2288890	ELCue	ANTI	92	4	False	red	180	[1035 1515  405  675]	[405 885 405 675]
595.792	2.0	2289300	2291342	ShowFixation	VGS	93	4	False	lime	40	[ 90 570 405 675]	[1350 1830  405  675]
597.835	0.2	2291343	2291577	BlankScreen	VGS	93	4	False	lime	40	[ 90 570 405 675]	[1350 1830  405  675]
598.069	1.0	2291577	2292577	ELCue	VGS	93	4	False	lime	40	[ 90 570 405 675]	[1350 1830  405  675]
599.474	2.0	2292982	2295012	ShowFixation	VGS	94	4	False	lime	600	[1350 1830  405  675]	[ 90 570 405 675]
601.504	0.2	2295012	2295247	BlankScreen	VGS	94	4	False	lime	600	[1350 1830  405  675]	[ 90 570 405 675]
601.739	1.0	2295247	2296247	ELCue	VGS	94	4	False	lime	600	[1350 1830  405  675]	[ 90 570 405 675]
603.131	2.0	2296639	2298665	ShowFixation	VGS	95	4	False	lime	180	[405 885 405 675]	[1035 1515  405  675]
605.158	0.2	2298666	2298902	BlankScreen	VGS	95	4	False	lime	180	[405 885 405 675]	[1035 1515  405  675]
605.394	1.0	2298902	2299902	ELCue	VGS	95	4	False	lime	180	[405 885 405 675]	[1035 1515  405  675]
606.803	6.0	2300311	2306336	ShowFixation	VGS	96	4	False	lime	600	[1350 1830  405  675]	[ 90 570 405 675]
612.828	0.2	2306336	2306575	BlankScreen	VGS	96	4	False	lime	600	[1350 1830  405  675]	[ 90 570 405 675]
613.067	1.0	2306575	2307575	ELCue	VGS	96	4	False	lime	600	[1350 1830  405  675]	[ 90 570 405 675]
614.472	6.0	2307980	2314011	ShowFixation	ANTI	97	4	False	red	180	[1035 1515  405  675]	[405 885 405 675]
620.503	0.2	2314011	2314250	BlankScreen	ANTI	97	4	False	red	180	[1035 1515  405  675]	[405 885 405 675]
620.742	1.0	2314250	2315250	ELCue	ANTI	97	4	False	red	180	[1035 1515  405  675]	[405 885 405 675]
622.154	2.0	2315662	2317702	ShowFixation	VGS	98	4	False	lime	180	[405 885 405 675]	[1035 1515  405  675]
624.194	0.2	2317702	2317937	BlankScreen	VGS	98	4	False	lime	180	[405 885 405 675]	[1035 1515  405  675]
624.429	1.0	2317937	2318937	ELCue	VGS	98	4	False	lime	180	[405 885 405 675]	[1035 1515  405  675]
625.835	2.0	2319343	2321372	ShowFixation	ANTI	99	4	False	red	40	[1350 1830  405  675]	[ 90 570 405 675]
627.864	0.2	2321372	2321607	BlankScreen	ANTI	99	4	False	red	40	[1350 1830  405  675]	[ 90 570 405 675]
628.1	1.0	2321608	2322608	ELCue	ANTI	99	4	False	red	40	[1350 1830  405  675]	[ 90 570 405 675]
629.507	6.0	2323015	2329042	ShowFixation	ANTI	100	4	False	red	600	[ 90 570 405 675]	[1350 1830  405  675]
635.535	0.2	2329043	2329282	BlankScreen	ANTI	100	4	False	red	600	[ 90 570 405 675]	[1350 1830  405  675]
635.774	1.0	2329282	2330282	ELCue	ANTI	100	4	False	red	600	[ 90 570 405 675]	[1350 1830  405  675]
637.183	6.0	2330691	2336717	ShowFixation	ANTI	101	4	False	red	460	[405 885 405 675]	[1035 1515  405  675]
643.209	0.2	2336717	2336955	BlankScreen	ANTI	101	4	False	red	460	[405 885 405 675]	[1035 1515  405  675]
643.448	1.0	2336956	2337956	ELCue	ANTI	101	4	False	red	460	[405 885 405 675]	[1035 1515  405  675]
644.86	6.0	2338368	2344408	ShowFixation	VGS	102	4	False	lime	180	[405 885 405 675]	[1035 1515  405  675]
650.9	0.2	2344408	2344647	BlankScreen	VGS	102	4	False	lime	180	[405 885 405 675]	[1035 1515  405  675]
651.139	1.0	2344647	2345647	ELCue	VGS	102	4	False	lime	180	[405 885 405 675]	[1035 1515  405  675]
652.552	6.0	2346060	2352099	ShowFixation	ANTI	103	4	False	red	460	[405 885 405 675]	[1035 1515  405  675]
658.591	0.2	2352099	2352338	BlankScreen	ANTI	103	4	False	red	460	[405 885 405 675]	[1035 1515  405  675]
658.83	1.0	2352338	2353338	ELCue	ANTI	103	4	False	red	460	[405 885 405 675]	[1035 1515  405  675]
660.219	6.0	2353727	2359756	ShowFixation	VGS	104	4	False	lime	180	[405 885 405 675]	[1035 1515  405  675]
666.248	0.2	2359756	2359995	BlankScreen	VGS	104	4	False	lime	180	[405 885 405 675]	[1035 1515  405  675]
666.487	1.0	2359995	2360995	ELCue	VGS	104	4	False	lime	180	[405 885 405 675]	[1035 1515  405  675]
667.879	2.0	2361387	2363414	ShowFixation	ANTI	105	4	False	red	460	[405 885 405 675]	[1035 1515  405  675]
669.906	0.2	2363414	2363649	BlankScreen	ANTI	105	4	False	red	460	[405 885 405 675]	[1035 1515  405  675]
670.141	1.0	2363649	2364649	ELCue	ANTI	105	4	False	red	460	[405 885 405 675]	[1035 1515  405  675]
671.554	6.0	2365062	2371101	ShowFixation	ANTI	106	4	False	red	40	[1350 1830  405  675]	[ 90 570 405 675]
677.593	0.2	2371101	2371340	BlankScreen	ANTI	106	4	False	red	40	[1350 1830  405  675]	[ 90 570 405 675]
677.832	1.0	2371340	2372340	ELCue	ANTI	106	4	False	red	40	[1350 1830  405  675]	[ 90 570 405 675]
679.219	2.0	2372727	2374758	ShowFixation	ANTI	107	4	False	red	180	[1035 1515  405  675]	[405 885 405 675]
681.25	0.2	2374758	2374994	BlankScreen	ANTI	107	4	False	red	180	[1035 1515  405  675]	[405 885 405 675]
681.486	1.0	2374994	2375994	ELCue	ANTI	107	4	False	red	180	[1035 1515  405  675]	[405 885 405 675]
682.875	2.0	2376383	2378412	ShowFixation	ANTI	108	4	False	red	460	[405 885 405 675]	[1035 1515  405  675]
684.904	0.2	2378412	2378647	BlankScreen	ANTI	108	4	False	red	460	[405 885 405 675]	[1035 1515  405  675]
685.139	1.0	2378647	2379647	ELCue	ANTI	108	4	False	red	460	[405 885 405 675]	[1035 1515  405  675]
686.551	2.0	2380059	2382099	ShowFixation	ANTI	109	4	False	red	180	[1035 1515  405  675]	[405 885 405 675]
688.591	0.2	2382099	2382334	BlankScreen	ANTI	109	4	False	red	180	[1035 1515  405  675]	[405 885 405 675]
688.826	1.0	2382334	2383334	ELCue	ANTI	109	4	False	red	180	[1035 1515  405  675]	[405 885 405 675]
690.231	2.0	2383739	2385769	ShowFixation	ANTI	110	4	False	red	600	[ 90 570 405 675]	[1350 1830  405  675]
692.261	0.2	2385769	2386005	BlankScreen	ANTI	110	4	False	red	600	[ 90 570 405 675]	[1350 1830  405  675]
692.497	1.0	2386005	2387005	ELCue	ANTI	110	4	False	red	600	[ 90 570 405 675]	[1350 1830  405  675]
693.901	2.0	2387409	2389439	ShowFixation	ANTI	111	4	False	red	40	[1350 1830  405  675]	[ 90 570 405 675]
695.931	0.2	2389439	2389675	BlankScreen	ANTI	111	4	False	red	40	[1350 1830  405  675]	[ 90 570 405 675]
696.167	1.0	2389675	2390675	ELCue	ANTI	111	4	False	red	40	[1350 1830  405  675]	[ 90 570 405 675]
697.576	6.0	2391084	2397110	ShowFixation	VGS	112	4	False	lime	600	[1350 1830  405  675]	[ 90 570 405 675]
703.602	0.2	2397110	2397349	BlankScreen	VGS	112	4	False	lime	600	[1350 1830  405  675]	[ 90 570 405 675]
703.841	1.0	2397349	2398349	ELCue	VGS	112	4	False	lime	600	[1350 1830  405  675]	[ 90 570 405 675]
