onset	duration	startTime	stopTime	eventIdentifier	trial_type	trial_number	block_number	is_practice	fixation_color	cue_side	aoi_correct	aoi_incorrect
0.144	2.0	2972601	2974635	ShowFixation	ANTI	1	1	True	red	180	[1035 1515  405  675]	[405 885 405 675]
2.178	0.2	2974635	2974871	BlankScreen	ANTI	1	1	True	red	180	[1035 1515  405  675]	[405 885 405 675]
2.414	1.0	2974871	2975911	ELCue	ANTI	1	1	True	red	180	[1035 1515  405  675]	[405 885 405 675]
3.851	6.0	2976308	2982956	ShowFixation	ANTI	2	1	True	red	180	[1035 1515  405  675]	[405 885 405 675]
10.499	0.2	2982956	2983195	BlankScreen	ANTI	2	1	True	red	180	[1035 1515  405  675]	[405 885 405 675]
10.738	1.0	2983195	2984236	ELCue	ANTI	2	1	True	red	180	[1035 1515  405  675]	[405 885 405 675]
12.184	2.0	2984641	2987281	ShowFixation	VGS	3	1	True	lime	460	[1035 1515  405  675]	[405 885 405 675]
14.824	0.2	2987281	2987516	BlankScreen	VGS	3	1	True	lime	460	[1035 1515  405  675]	[405 885 405 675]
15.059	1.0	2987516	2988557	ELCue	VGS	3	1	True	lime	460	[1035 1515  405  675]	[405 885 405 675]
16.505	6.0	2988962	2995602	ShowFixation	ANTI	4	1	True	red	600	[ 90 570 405 675]	[1350 1830  405  675]
23.145	0.2	2995602	2995841	BlankScreen	ANTI	4	1	True	red	600	[ 90 570 405 675]	[1350 1830  405  675]
23.384	1.0	2995841	2996882	ELCue	ANTI	4	1	True	red	600	[ 90 570 405 675]	[1350 1830  405  675]
24.825	2.0	2997282	2999927	ShowFixation	ANTI	5	1	True	red	40	[1350 1830  405  675]	[ 90 570 405 675]
27.47	0.2	2999927	3000162	BlankScreen	ANTI	5	1	True	red	40	[1350 1830  405  675]	[ 90 570 405 675]
27.705	1.0	3000162	3001203	ELCue	ANTI	5	1	True	red	40	[1350 1830  405  675]	[ 90 570 405 675]
29.145	6.0	3001602	3008248	ShowFixation	VGS	6	1	True	lime	600	[1350 1830  405  675]	[ 90 570 405 675]
35.791	0.2	3008248	3008487	BlankScreen	VGS	6	1	True	lime	600	[1350 1830  405  675]	[ 90 570 405 675]
36.03	1.0	3008487	3009528	ELCue	VGS	6	1	True	lime	600	[1350 1830  405  675]	[ 90 570 405 675]
37.474	2.0	3009931	3012573	ShowFixation	VGS	7	1	True	lime	40	[ 90 570 405 675]	[1350 1830  405  675]
40.116	0.2	3012573	3012808	BlankScreen	VGS	7	1	True	lime	40	[ 90 570 405 675]	[1350 1830  405  675]
40.351	1.0	3012808	3013849	ELCue	VGS	7	1	True	lime	40	[ 90 570 405 675]	[1350 1830  405  675]
41.796	2.0	3014253	3016893	ShowFixation	VGS	8	1	True	lime	600	[1350 1830  405  675]	[ 90 570 405 675]
44.436	0.2	3016893	3017129	BlankScreen	VGS	8	1	True	lime	600	[1350 1830  405  675]	[ 90 570 405 675]
44.672	1.0	3017129	3018170	ELCue	VGS	8	1	True	lime	600	[1350 1830  405  675]	[ 90 570 405 675]
46.115	2.0	3018572	3021214	ShowFixation	ANTI	9	1	True	red	600	[ 90 570 405 675]	[1350 1830  405  675]
48.757	0.2	3021214	3021450	BlankScreen	ANTI	9	1	True	red	600	[ 90 570 405 675]	[1350 1830  405  675]
48.993	1.0	3021450	3022491	ELCue	ANTI	9	1	True	red	600	[ 90 570 405 675]	[1350 1830  405  675]
50.441	6.0	3022898	3029536	ShowFixation	VGS	10	1	True	lime	180	[405 885 405 675]	[1035 1515  405  675]
57.079	0.2	3029536	3029775	BlankScreen	VGS	10	1	True	lime	180	[405 885 405 675]	[1035 1515  405  675]
57.318	1.0	3029775	3030815	ELCue	VGS	10	1	True	lime	180	[405 885 405 675]	[1035 1515  405  675]
58.76	6.0	3031217	3037860	ShowFixation	ANTI	11	1	True	red	460	[405 885 405 675]	[1035 1515  405  675]
65.404	0.2	3037861	3038099	BlankScreen	ANTI	11	1	True	red	460	[405 885 405 675]	[1035 1515  405  675]
65.642	1.0	3038099	3039140	ELCue	ANTI	11	1	True	red	460	[405 885 405 675]	[1035 1515  405  675]
67.084	2.0	3039541	3042186	ShowFixation	VGS	12	1	True	lime	180	[405 885 405 675]	[1035 1515  405  675]
69.729	0.2	3042186	3042421	BlankScreen	VGS	12	1	True	lime	180	[405 885 405 675]	[1035 1515  405  675]
69.964	1.0	3042421	3043461	ELCue	VGS	12	1	True	lime	180	[405 885 405 675]	[1035 1515  405  675]
71.409	6.0	3043866	3050490	ShowFixation	VGS	13	1	True	lime	40	[ 90 570 405 675]	[1350 1830  405  675]
78.033	0.2	3050490	3050730	BlankScreen	VGS	13	1	True	lime	40	[ 90 570 405 675]	[1350 1830  405  675]
78.273	1.0	3050730	3051770	ELCue	VGS	13	1	True	lime	40	[ 90 570 405 675]	[1350 1830  405  675]
79.715	2.0	3052172	3054815	ShowFixation	ANTI	14	1	True	red	460	[405 885 405 675]	[1035 1515  405  675]
82.358	0.2	3054815	3055051	BlankScreen	ANTI	14	1	True	red	460	[405 885 405 675]	[1035 1515  405  675]
82.594	1.0	3055051	3056091	ELCue	ANTI	14	1	True	red	460	[405 885 405 675]	[1035 1515  405  675]
84.068	6.0	3056525	3063136	ShowFixation	ANTI	15	1	True	red	40	[1350 1830  405  675]	[ 90 570 405 675]
90.679	0.2	3063136	3063375	BlankScreen	ANTI	15	1	True	red	40	[1350 1830  405  675]	[ 90 570 405 675]
90.918	1.0	3063375	3064416	ELCue	ANTI	15	1	True	red	40	[1350 1830  405  675]	[ 90 570 405 675]
92.355	6.0	3064812	3071461	ShowFixation	VGS	16	1	True	lime	460	[1035 1515  405  675]	[405 885 405 675]
99.004	0.2	3071461	3071700	BlankScreen	VGS	16	1	True	lime	460	[1035 1515  405  675]	[405 885 405 675]
99.243	1.0	3071700	3072741	ELCue	VGS	16	1	True	lime	460	[1035 1515  405  675]	[405 885 405 675]
110.312	2.0	3082769	3084795	ShowFixation	ANTI	17	2	False	red	460	[405 885 405 675]	[1035 1515  405  675]
112.338	0.2	3084795	3085030	BlankScreen	ANTI	17	2	False	red	460	[405 885 405 675]	[1035 1515  405  675]
112.573	1.0	3085030	3086030	ELCue	ANTI	17	2	False	red	460	[405 885 405 675]	[1035 1515  405  675]
113.982	2.0	3086439	3088465	ShowFixation	ANTI	18	2	False	red	40	[1350 1830  405  675]	[ 90 570 405 675]
116.008	0.2	3088465	3088700	BlankScreen	ANTI	18	2	False	red	40	[1350 1830  405  675]	[ 90 570 405 675]
116.243	1.0	3088700	3089700	ELCue	ANTI	18	2	False	red	40	[1350 1830  405  675]	[ 90 570 405 675]
117.655	2.0	3090112	3092152	ShowFixation	VGS	19	2	False	lime	180	[405 885 405 675]	[1035 1515  405  675]
119.695	0.2	3092152	3092387	BlankScreen	VGS	19	2	False	lime	180	[405 885 405 675]	[1035 1515  405  675]
119.93	1.0	3092387	3093387	ELCue	VGS	19	2	False	lime	180	[405 885 405 675]	[1035 1515  405  675]
121.34	6.0	3093797	3099822	ShowFixation	ANTI	20	2	False	red	600	[ 90 570 405 675]	[1350 1830  405  675]
127.365	0.2	3099822	3100062	BlankScreen	ANTI	20	2	False	red	600	[ 90 570 405 675]	[1350 1830  405  675]
127.605	1.0	3100062	3101062	ELCue	ANTI	20	2	False	red	600	[ 90 570 405 675]	[1350 1830  405  675]
129.014	6.0	3101471	3107496	ShowFixation	VGS	21	2	False	lime	180	[405 885 405 675]	[1035 1515  405  675]
135.039	0.2	3107496	3107736	BlankScreen	VGS	21	2	False	lime	180	[405 885 405 675]	[1035 1515  405  675]
135.279	1.0	3107736	3108736	ELCue	VGS	21	2	False	lime	180	[405 885 405 675]	[1035 1515  405  675]
136.69	6.0	3109147	3115187	ShowFixation	ANTI	22	2	False	red	40	[1350 1830  405  675]	[ 90 570 405 675]
142.73	0.2	3115187	3115427	BlankScreen	ANTI	22	2	False	red	40	[1350 1830  405  675]	[ 90 570 405 675]
142.97	1.0	3115427	3116427	ELCue	ANTI	22	2	False	red	40	[1350 1830  405  675]	[ 90 570 405 675]
144.385	6.0	3116842	3122878	ShowFixation	ANTI	23	2	False	red	600	[ 90 570 405 675]	[1350 1830  405  675]
150.421	0.2	3122878	3123118	BlankScreen	ANTI	23	2	False	red	600	[ 90 570 405 675]	[1350 1830  405  675]
150.662	1.0	3123119	3124119	ELCue	ANTI	23	2	False	red	600	[ 90 570 405 675]	[1350 1830  405  675]
152.069	6.0	3124526	3130553	ShowFixation	VGS	24	2	False	lime	600	[1350 1830  405  675]	[ 90 570 405 675]
158.097	0.2	3130554	3130793	BlankScreen	VGS	24	2	False	lime	600	[1350 1830  405  675]	[ 90 570 405 675]
158.336	1.0	3130793	3131793	ELCue	VGS	24	2	False	lime	600	[1350 1830  405  675]	[ 90 570 405 675]
159.743	6.0	3132200	3138228	ShowFixation	VGS	25	2	False	lime	180	[405 885 405 675]	[1035 1515  405  675]
165.771	0.2	3138228	3138467	BlankScreen	VGS	25	2	False	lime	180	[405 885 405 675]	[1035 1515  405  675]
166.01	1.0	3138467	3139467	ELCue	VGS	25	2	False	lime	180	[405 885 405 675]	[1035 1515  405  675]
167.419	2.0	3139876	3141902	ShowFixation	ANTI	26	2	False	red	40	[1350 1830  405  675]	[ 90 570 405 675]
169.445	0.2	3141902	3142137	BlankScreen	ANTI	26	2	False	red	40	[1350 1830  405  675]	[ 90 570 405 675]
169.68	1.0	3142137	3143137	ELCue	ANTI	26	2	False	red	40	[1350 1830  405  675]	[ 90 570 405 675]
171.086	6.0	3143543	3149572	ShowFixation	VGS	27	2	False	lime	40	[ 90 570 405 675]	[1350 1830  405  675]
177.115	0.2	3149572	3149812	BlankScreen	VGS	27	2	False	lime	40	[ 90 570 405 675]	[1350 1830  405  675]
177.355	1.0	3149812	3150812	ELCue	VGS	27	2	False	lime	40	[ 90 570 405 675]	[1350 1830  405  675]
178.762	6.0	3151219	3157246	ShowFixation	ANTI	28	2	False	red	180	[1035 1515  405  675]	[405 885 405 675]
184.789	0.2	3157246	3157486	BlankScreen	ANTI	28	2	False	red	180	[1035 1515  405  675]	[405 885 405 675]
185.029	1.0	3157486	3158486	ELCue	ANTI	28	2	False	red	180	[1035 1515  405  675]	[405 885 405 675]
186.435	2.0	3158892	3160921	ShowFixation	VGS	29	2	False	lime	460	[1035 1515  405  675]	[405 885 405 675]
188.464	0.2	3160921	3161156	BlankScreen	VGS	29	2	False	lime	460	[1035 1515  405  675]	[405 885 405 675]
188.699	1.0	3161156	3162156	ELCue	VGS	29	2	False	lime	460	[1035 1515  405  675]	[405 885 405 675]
190.101	2.0	3162558	3164591	ShowFixation	VGS	30	2	False	lime	460	[1035 1515  405  675]	[405 885 405 675]
192.134	0.2	3164591	3164826	BlankScreen	VGS	30	2	False	lime	460	[1035 1515  405  675]	[405 885 405 675]
192.369	1.0	3164826	3165826	ELCue	VGS	30	2	False	lime	460	[1035 1515  405  675]	[405 885 405 675]
193.74	2.0	3166197	3168228	ShowFixation	ANTI	31	2	False	red	460	[405 885 405 675]	[1035 1515  405  675]
195.771	0.2	3168228	3168463	BlankScreen	ANTI	31	2	False	red	460	[405 885 405 675]	[1035 1515  405  675]
196.006	1.0	3168463	3169463	ELCue	ANTI	31	2	False	red	460	[405 885 405 675]	[1035 1515  405  675]
197.398	2.0	3169855	3171881	ShowFixation	VGS	32	2	False	lime	600	[1350 1830  405  675]	[ 90 570 405 675]
199.424	0.2	3171881	3172117	BlankScreen	VGS	32	2	False	lime	600	[1350 1830  405  675]	[ 90 570 405 675]
199.66	1.0	3172117	3173117	ELCue	VGS	32	2	False	lime	600	[1350 1830  405  675]	[ 90 570 405 675]
201.068	2.0	3173525	3175552	ShowFixation	ANTI	33	2	False	red	600	[ 90 570 405 675]	[1350 1830  405  675]
203.095	0.2	3175552	3175787	BlankScreen	ANTI	33	2	False	red	600	[ 90 570 405 675]	[1350 1830  405  675]
203.33	1.0	3175787	3176787	ELCue	ANTI	33	2	False	red	600	[ 90 570 405 675]	[1350 1830  405  675]
204.739	2.0	3177196	3179222	ShowFixation	ANTI	34	2	False	red	180	[1035 1515  405  675]	[405 885 405 675]
206.765	0.2	3179222	3179457	BlankScreen	ANTI	34	2	False	red	180	[1035 1515  405  675]	[405 885 405 675]
207.0	1.0	3179457	3180457	ELCue	ANTI	34	2	False	red	180	[1035 1515  405  675]	[405 885 405 675]
208.405	2.0	3180862	3182892	ShowFixation	ANTI	35	2	False	red	600	[ 90 570 405 675]	[1350 1830  405  675]
210.435	0.2	3182892	3183128	BlankScreen	ANTI	35	2	False	red	600	[ 90 570 405 675]	[1350 1830  405  675]
210.671	1.0	3183128	3184128	ELCue	ANTI	35	2	False	red	600	[ 90 570 405 675]	[1350 1830  405  675]
212.078	6.0	3184535	3190563	ShowFixation	VGS	36	2	False	lime	600	[1350 1830  405  675]	[ 90 570 405 675]
218.106	0.2	3190563	3190802	BlankScreen	VGS	36	2	False	lime	600	[1350 1830  405  675]	[ 90 570 405 675]
218.345	1.0	3190802	3191802	ELCue	VGS	36	2	False	lime	600	[1350 1830  405  675]	[ 90 570 405 675]
219.748	6.0	3192205	3198237	ShowFixation	ANTI	37	2	False	red	460	[405 885 405 675]	[1035 1515  405  675]
225.78	0.2	3198237	3198476	BlankScreen	ANTI	37	2	False	red	460	[405 885 405 675]	[1035 1515  405  675]
226.019	1.0	3198476	3199476	ELCue	ANTI	37	2	False	red	460	[405 885 405 675]	[1035 1515  405  675]
227.429	2.0	3199886	3201911	ShowFixation	VGS	38	2	False	lime	600	[1350 1830  405  675]	[ 90 570 405 675]
229.454	0.2	3201911	3202146	BlankScreen	VGS	38	2	False	lime	600	[1350 1830  405  675]	[ 90 570 405 675]
229.689	1.0	3202146	3203146	ELCue	VGS	38	2	False	lime	600	[1350 1830  405  675]	[ 90 570 405 675]
231.099	2.0	3203556	3205581	ShowFixation	VGS	39	2	False	lime	40	[ 90 570 405 675]	[1350 1830  405  675]
233.124	0.2	3205581	3205817	BlankScreen	VGS	39	2	False	lime	40	[ 90 570 405 675]	[1350 1830  405  675]
233.36	1.0	3205817	3206817	ELCue	VGS	39	2	False	lime	40	[ 90 570 405 675]	[1350 1830  405  675]
234.774	2.0	3207231	3209268	ShowFixation	VGS	40	2	False	lime	40	[ 90 570 405 675]	[1350 1830  405  675]
236.811	0.2	3209268	3209504	BlankScreen	VGS	40	2	False	lime	40	[ 90 570 405 675]	[1350 1830  405  675]
237.047	1.0	3209504	3210504	ELCue	VGS	40	2	False	lime	40	[ 90 570 405 675]	[1350 1830  405  675]
238.452	6.0	3210909	3216939	ShowFixation	VGS	41	2	False	lime	460	[1035 1515  405  675]	[405 885 405 675]
244.482	0.2	3216939	3217178	BlankScreen	VGS	41	2	False	lime	460	[1035 1515  405  675]	[405 885 405 675]
244.722	1.0	3217179	3218179	ELCue	VGS	41	2	False	lime	460	[1035 1515  405  675]	[405 885 405 675]
246.125	6.0	3218582	3224614	ShowFixation	VGS	42	2	False	lime	460	[1035 1515  405  675]	[405 885 405 675]
252.157	0.2	3224614	3224853	BlankScreen	VGS	42	2	False	lime	460	[1035 1515  405  675]	[405 885 405 675]
252.396	1.0	3224853	3225853	ELCue	VGS	42	2	False	lime	460	[1035 1515  405  675]	[405 885 405 675]
253.8	6.0	3226257	3232288	ShowFixation	VGS	43	2	False	lime	40	[ 90 570 405 675]	[1350 1830  405  675]
259.831	0.2	3232288	3232527	BlankScreen	VGS	43	2	False	lime	40	[ 90 570 405 675]	[1350 1830  405  675]
260.07	1.0	3232527	3233527	ELCue	VGS	43	2	False	lime	40	[ 90 570 405 675]	[1350 1830  405  675]
261.479	2.0	3233936	3235962	ShowFixation	ANTI	44	2	False	red	180	[1035 1515  405  675]	[405 885 405 675]
263.505	0.2	3235962	3236198	BlankScreen	ANTI	44	2	False	red	180	[1035 1515  405  675]	[405 885 405 675]
263.741	1.0	3236198	3237198	ELCue	ANTI	44	2	False	red	180	[1035 1515  405  675]	[405 885 405 675]
265.15	6.0	3237607	3243633	ShowFixation	ANTI	45	2	False	red	40	[1350 1830  405  675]	[ 90 570 405 675]
271.176	0.2	3243633	3243872	BlankScreen	ANTI	45	2	False	red	40	[1350 1830  405  675]	[ 90 570 405 675]
271.415	1.0	3243872	3244872	ELCue	ANTI	45	2	False	red	40	[1350 1830  405  675]	[ 90 570 405 675]
272.822	2.0	3245279	3247307	ShowFixation	VGS	46	2	False	lime	180	[405 885 405 675]	[1035 1515  405  675]
274.85	0.2	3247307	3247542	BlankScreen	VGS	46	2	False	lime	180	[405 885 405 675]	[1035 1515  405  675]
275.085	1.0	3247542	3248542	ELCue	VGS	46	2	False	lime	180	[405 885 405 675]	[1035 1515  405  675]
276.493	6.0	3248950	3254977	ShowFixation	ANTI	47	2	False	red	460	[405 885 405 675]	[1035 1515  405  675]
282.52	0.2	3254977	3255216	BlankScreen	ANTI	47	2	False	red	460	[405 885 405 675]	[1035 1515  405  675]
282.759	1.0	3255216	3256216	ELCue	ANTI	47	2	False	red	460	[405 885 405 675]	[1035 1515  405  675]
284.17	6.0	3256627	3262668	ShowFixation	ANTI	48	2	False	red	180	[1035 1515  405  675]	[405 885 405 675]
290.211	0.2	3262668	3262907	BlankScreen	ANTI	48	2	False	red	180	[1035 1515  405  675]	[405 885 405 675]
290.45	1.0	3262907	3263907	ELCue	ANTI	48	2	False	red	180	[1035 1515  405  675]	[405 885 405 675]
302.368	6.0	3274825	3280853	ShowFixation	ANTI	49	3	False	red	460	[405 885 405 675]	[1035 1515  405  675]
308.396	0.2	3280853	3281092	BlankScreen	ANTI	49	3	False	red	460	[405 885 405 675]	[1035 1515  405  675]
308.635	1.0	3281092	3282092	ELCue	ANTI	49	3	False	red	460	[405 885 405 675]	[1035 1515  405  675]
310.021	6.0	3282478	3288510	ShowFixation	VGS	50	3	False	lime	40	[ 90 570 405 675]	[1350 1830  405  675]
316.053	0.2	3288510	3288749	BlankScreen	VGS	50	3	False	lime	40	[ 90 570 405 675]	[1350 1830  405  675]
316.292	1.0	3288749	3289749	ELCue	VGS	50	3	False	lime	40	[ 90 570 405 675]	[1350 1830  405  675]
317.685	2.0	3290142	3292168	ShowFixation	VGS	51	3	False	lime	600	[1350 1830  405  675]	[ 90 570 405 675]
319.711	0.2	3292168	3292403	BlankScreen	VGS	51	3	False	lime	600	[1350 1830  405  675]	[ 90 570 405 675]
319.946	1.0	3292403	3293403	ELCue	VGS	51	3	False	lime	600	[1350 1830  405  675]	[ 90 570 405 675]
321.354	6.0	3293811	3299838	ShowFixation	VGS	52	3	False	lime	180	[405 885 405 675]	[1035 1515  405  675]
327.381	0.2	3299838	3300077	BlankScreen	VGS	52	3	False	lime	180	[405 885 405 675]	[1035 1515  405  675]
327.62	1.0	3300077	3301077	ELCue	VGS	52	3	False	lime	180	[405 885 405 675]	[1035 1515  405  675]
329.029	6.0	3301486	3307512	ShowFixation	VGS	53	3	False	lime	600	[1350 1830  405  675]	[ 90 570 405 675]
335.055	0.2	3307512	3307751	BlankScreen	VGS	53	3	False	lime	600	[1350 1830  405  675]	[ 90 570 405 675]
335.294	1.0	3307751	3308751	ELCue	VGS	53	3	False	lime	600	[1350 1830  405  675]	[ 90 570 405 675]
336.705	2.0	3309162	3311186	ShowFixation	ANTI	54	3	False	red	180	[1035 1515  405  675]	[405 885 405 675]
338.73	0.2	3311187	3311422	BlankScreen	ANTI	54	3	False	red	180	[1035 1515  405  675]	[405 885 405 675]
338.966	1.0	3311423	3312423	ELCue	ANTI	54	3	False	red	180	[1035 1515  405  675]	[405 885 405 675]
340.371	2.0	3312828	3314858	ShowFixation	ANTI	55	3	False	red	600	[ 90 570 405 675]	[1350 1830  405  675]
342.401	0.2	3314858	3315093	BlankScreen	ANTI	55	3	False	red	600	[ 90 570 405 675]	[1350 1830  405  675]
342.636	1.0	3315093	3316093	ELCue	ANTI	55	3	False	red	600	[ 90 570 405 675]	[1350 1830  405  675]
344.028	6.0	3316485	3322511	ShowFixation	ANTI	56	3	False	red	180	[1035 1515  405  675]	[405 885 405 675]
350.054	0.2	3322511	3322751	BlankScreen	ANTI	56	3	False	red	180	[1035 1515  405  675]	[405 885 405 675]
350.294	1.0	3322751	3323751	ELCue	ANTI	56	3	False	red	180	[1035 1515  405  675]	[405 885 405 675]
351.699	6.0	3324156	3330186	ShowFixation	ANTI	57	3	False	red	40	[1350 1830  405  675]	[ 90 570 405 675]
357.729	0.2	3330186	3330425	BlankScreen	ANTI	57	3	False	red	40	[1350 1830  405  675]	[ 90 570 405 675]
357.968	1.0	3330425	3331425	ELCue	ANTI	57	3	False	red	40	[1350 1830  405  675]	[ 90 570 405 675]
359.376	2.0	3331833	3333860	ShowFixation	ANTI	58	3	False	red	180	[1035 1515  405  675]	[405 885 405 675]
361.403	0.2	3333860	3334095	BlankScreen	ANTI	58	3	False	red	180	[1035 1515  405  675]	[405 885 405 675]
361.638	1.0	3334095	3335095	ELCue	ANTI	58	3	False	red	180	[1035 1515  405  675]	[405 885 405 675]
363.045	6.0	3335502	3341530	ShowFixation	VGS	59	3	False	lime	460	[1035 1515  405  675]	[405 885 405 675]
369.073	0.2	3341530	3341769	BlankScreen	VGS	59	3	False	lime	460	[1035 1515  405  675]	[405 885 405 675]
369.312	1.0	3341769	3342769	ELCue	VGS	59	3	False	lime	460	[1035 1515  405  675]	[405 885 405 675]
370.715	2.0	3343172	3345204	ShowFixation	VGS	60	3	False	lime	180	[405 885 405 675]	[1035 1515  405  675]
372.747	0.2	3345204	3345440	BlankScreen	VGS	60	3	False	lime	180	[405 885 405 675]	[1035 1515  405  675]
372.983	1.0	3345440	3346440	ELCue	VGS	60	3	False	lime	180	[405 885 405 675]	[1035 1515  405  675]
374.393	2.0	3346850	3348891	ShowFixation	VGS	61	3	False	lime	600	[1350 1830  405  675]	[ 90 570 405 675]
376.434	0.2	3348891	3349127	BlankScreen	VGS	61	3	False	lime	600	[1350 1830  405  675]	[ 90 570 405 675]
376.67	1.0	3349127	3350127	ELCue	VGS	61	3	False	lime	600	[1350 1830  405  675]	[ 90 570 405 675]
378.08	2.0	3350537	3352578	ShowFixation	VGS	62	3	False	lime	180	[405 885 405 675]	[1035 1515  405  675]
380.121	0.2	3352578	3352814	BlankScreen	VGS	62	3	False	lime	180	[405 885 405 675]	[1035 1515  405  675]
380.357	1.0	3352814	3353814	ELCue	VGS	62	3	False	lime	180	[405 885 405 675]	[1035 1515  405  675]
381.762	6.0	3354219	3360248	ShowFixation	VGS	63	3	False	lime	460	[1035 1515  405  675]	[405 885 405 675]
387.791	0.2	3360248	3360488	BlankScreen	VGS	63	3	False	lime	460	[1035 1515  405  675]	[405 885 405 675]
388.031	1.0	3360488	3361488	ELCue	VGS	63	3	False	lime	460	[1035 1515  405  675]	[405 885 405 675]
389.444	2.0	3361901	3363939	ShowFixation	ANTI	64	3	False	red	600	[ 90 570 405 675]	[1350 1830  405  675]
391.482	0.2	3363939	3364175	BlankScreen	ANTI	64	3	False	red	600	[ 90 570 405 675]	[1350 1830  405  675]
391.718	1.0	3364175	3365175	ELCue	ANTI	64	3	False	red	600	[ 90 570 405 675]	[1350 1830  405  675]
393.12	6.0	3365577	3371610	ShowFixation	VGS	65	3	False	lime	40	[ 90 570 405 675]	[1350 1830  405  675]
399.153	0.2	3371610	3371849	BlankScreen	VGS	65	3	False	lime	40	[ 90 570 405 675]	[1350 1830  405  675]
399.392	1.0	3371849	3372849	ELCue	VGS	65	3	False	lime	40	[ 90 570 405 675]	[1350 1830  405  675]
400.793	2.0	3373250	3375284	ShowFixation	ANTI	66	3	False	red	40	[1350 1830  405  675]	[ 90 570 405 675]
402.827	0.2	3375284	3375519	BlankScreen	ANTI	66	3	False	red	40	[1350 1830  405  675]	[ 90 570 405 675]
403.062	1.0	3375519	3376519	ELCue	ANTI	66	3	False	red	40	[1350 1830  405  675]	[ 90 570 405 675]
404.472	6.0	3376929	3382954	ShowFixation	VGS	67	3	False	lime	180	[405 885 405 675]	[1035 1515  405  675]
410.497	0.2	3382954	3383193	BlankScreen	VGS	67	3	False	lime	180	[405 885 405 675]	[1035 1515  405  675]
410.736	1.0	3383193	3384193	ELCue	VGS	67	3	False	lime	180	[405 885 405 675]	[1035 1515  405  675]
412.15	6.0	3384607	3390645	ShowFixation	ANTI	68	3	False	red	40	[1350 1830  405  675]	[ 90 570 405 675]
418.188	0.2	3390645	3390884	BlankScreen	ANTI	68	3	False	red	40	[1350 1830  405  675]	[ 90 570 405 675]
418.427	1.0	3390884	3391884	ELCue	ANTI	68	3	False	red	40	[1350 1830  405  675]	[ 90 570 405 675]
419.839	6.0	3392296	3398336	ShowFixation	VGS	69	3	False	lime	600	[1350 1830  405  675]	[ 90 570 405 675]
425.879	0.2	3398336	3398575	BlankScreen	VGS	69	3	False	lime	600	[1350 1830  405  675]	[ 90 570 405 675]
426.118	1.0	3398575	3399575	ELCue	VGS	69	3	False	lime	600	[1350 1830  405  675]	[ 90 570 405 675]
427.525	2.0	3399982	3402010	ShowFixation	VGS	70	3	False	lime	40	[ 90 570 405 675]	[1350 1830  405  675]
429.554	0.2	3402011	3402246	BlankScreen	VGS	70	3	False	lime	40	[ 90 570 405 675]	[1350 1830  405  675]
429.79	1.0	3402247	3403247	ELCue	VGS	70	3	False	lime	40	[ 90 570 405 675]	[1350 1830  405  675]
431.197	2.0	3403654	3405681	ShowFixation	VGS	71	3	False	lime	460	[1035 1515  405  675]	[405 885 405 675]
433.224	0.2	3405681	3405916	BlankScreen	VGS	71	3	False	lime	460	[1035 1515  405  675]	[405 885 405 675]
433.46	1.0	3405917	3406917	ELCue	VGS	71	3	False	lime	460	[1035 1515  405  675]	[405 885 405 675]
434.867	2.0	3407324	3409352	ShowFixation	ANTI	72	3	False	red	460	[405 885 405 675]	[1035 1515  405  675]
436.895	0.2	3409352	3409587	BlankScreen	ANTI	72	3	False	red	460	[405 885 405 675]	[1035 1515  405  675]
437.13	1.0	3409587	3410587	ELCue	ANTI	72	3	False	red	460	[405 885 405 675]	[1035 1515  405  675]
438.537	6.0	3410994	3417022	ShowFixation	ANTI	73	3	False	red	180	[1035 1515  405  675]	[405 885 405 675]
444.565	0.2	3417022	3417261	BlankScreen	ANTI	73	3	False	red	180	[1035 1515  405  675]	[405 885 405 675]
444.804	1.0	3417261	3418261	ELCue	ANTI	73	3	False	red	180	[1035 1515  405  675]	[405 885 405 675]
446.211	6.0	3418668	3424696	ShowFixation	ANTI	74	3	False	red	600	[ 90 570 405 675]	[1350 1830  405  675]
452.239	0.2	3424696	3424936	BlankScreen	ANTI	74	3	False	red	600	[ 90 570 405 675]	[1350 1830  405  675]
452.479	1.0	3424936	3425936	ELCue	ANTI	74	3	False	red	600	[ 90 570 405 675]	[1350 1830  405  675]
453.888	2.0	3426345	3428371	ShowFixation	VGS	75	3	False	lime	40	[ 90 570 405 675]	[1350 1830  405  675]
455.914	0.2	3428371	3428606	BlankScreen	VGS	75	3	False	lime	40	[ 90 570 405 675]	[1350 1830  405  675]
456.149	1.0	3428606	3429606	ELCue	VGS	75	3	False	lime	40	[ 90 570 405 675]	[1350 1830  405  675]
457.581	6.0	3430038	3436074	ShowFixation	ANTI	76	3	False	red	460	[405 885 405 675]	[1035 1515  405  675]
463.617	0.2	3436074	3436313	BlankScreen	ANTI	76	3	False	red	460	[405 885 405 675]	[1035 1515  405  675]
463.856	1.0	3436313	3437313	ELCue	ANTI	76	3	False	red	460	[405 885 405 675]	[1035 1515  405  675]
465.264	2.0	3437721	3439748	ShowFixation	ANTI	77	3	False	red	460	[405 885 405 675]	[1035 1515  405  675]
467.291	0.2	3439748	3439984	BlankScreen	ANTI	77	3	False	red	460	[405 885 405 675]	[1035 1515  405  675]
467.527	1.0	3439984	3440984	ELCue	ANTI	77	3	False	red	460	[405 885 405 675]	[1035 1515  405  675]
468.933	2.0	3441390	3443419	ShowFixation	ANTI	78	3	False	red	40	[1350 1830  405  675]	[ 90 570 405 675]
470.962	0.2	3443419	3443654	BlankScreen	ANTI	78	3	False	red	40	[1350 1830  405  675]	[ 90 570 405 675]
471.197	1.0	3443654	3444654	ELCue	ANTI	78	3	False	red	40	[1350 1830  405  675]	[ 90 570 405 675]
472.602	2.0	3445059	3447089	ShowFixation	VGS	79	3	False	lime	460	[1035 1515  405  675]	[405 885 405 675]
474.632	0.2	3447089	3447324	BlankScreen	VGS	79	3	False	lime	460	[1035 1515  405  675]	[405 885 405 675]
474.867	1.0	3447324	3448324	ELCue	VGS	79	3	False	lime	460	[1035 1515  405  675]	[405 885 405 675]
476.269	6.0	3448726	3454759	ShowFixation	ANTI	80	3	False	red	600	[ 90 570 405 675]	[1350 1830  405  675]
482.302	0.2	3454759	3454999	BlankScreen	ANTI	80	3	False	red	600	[ 90 570 405 675]	[1350 1830  405  675]
482.542	1.0	3454999	3455999	ELCue	ANTI	80	3	False	red	600	[ 90 570 405 675]	[1350 1830  405  675]
493.28	2.0	3465737	3467776	ShowFixation	VGS	81	4	False	lime	460	[1035 1515  405  675]	[405 885 405 675]
495.319	0.2	3467776	3468011	BlankScreen	VGS	81	4	False	lime	460	[1035 1515  405  675]	[405 885 405 675]
495.554	1.0	3468011	3469011	ELCue	VGS	81	4	False	lime	460	[1035 1515  405  675]	[405 885 405 675]
497.05	6.0	3469507	3475546	ShowFixation	VGS	82	4	False	lime	600	[1350 1830  405  675]	[ 90 570 405 675]
503.089	0.2	3475546	3475786	BlankScreen	VGS	82	4	False	lime	600	[1350 1830  405  675]	[ 90 570 405 675]
503.329	1.0	3475786	3476786	ELCue	VGS	82	4	False	lime	600	[1350 1830  405  675]	[ 90 570 405 675]
504.739	6.0	3477196	3483221	ShowFixation	ANTI	83	4	False	red	40	[1350 1830  405  675]	[ 90 570 405 675]
510.764	0.2	3483221	3483460	BlankScreen	ANTI	83	4	False	red	40	[1350 1830  405  675]	[ 90 570 405 675]
511.003	1.0	3483460	3484460	ELCue	ANTI	83	4	False	red	40	[1350 1830  405  675]	[ 90 570 405 675]
512.412	2.0	3484869	3486896	ShowFixation	ANTI	84	4	False	red	460	[405 885 405 675]	[1035 1515  405  675]
514.439	0.2	3486896	3487130	BlankScreen	ANTI	84	4	False	red	460	[405 885 405 675]	[1035 1515  405  675]
514.673	1.0	3487130	3488130	ELCue	ANTI	84	4	False	red	460	[405 885 405 675]	[1035 1515  405  675]
516.086	2.0	3488543	3490582	ShowFixation	ANTI	85	4	False	red	460	[405 885 405 675]	[1035 1515  405  675]
518.126	0.2	3490583	3490818	BlankScreen	ANTI	85	4	False	red	460	[405 885 405 675]	[1035 1515  405  675]
518.361	1.0	3490818	3491818	ELCue	ANTI	85	4	False	red	460	[405 885 405 675]	[1035 1515  405  675]
519.772	2.0	3492229	3494269	ShowFixation	ANTI	86	4	False	red	180	[1035 1515  405  675]	[405 885 405 675]
521.812	0.2	3494269	3494504	BlankScreen	ANTI	86	4	False	red	180	[1035 1515  405  675]	[405 885 405 675]
522.048	1.0	3494505	3495505	ELCue	ANTI	86	4	False	red	180	[1035 1515  405  675]	[405 885 405 675]
523.462	2.0	3495919	3497957	ShowFixation	VGS	87	4	False	lime	40	[ 90 570 405 675]	[1350 1830  405  675]
525.5	0.2	3497957	3498192	BlankScreen	VGS	87	4	False	lime	40	[ 90 570 405 675]	[1350 1830  405  675]
525.735	1.0	3498192	3499192	ELCue	VGS	87	4	False	lime	40	[ 90 570 405 675]	[1350 1830  405  675]
527.14	6.0	3499597	3505627	ShowFixation	ANTI	88	4	False	red	460	[405 885 405 675]	[1035 1515  405  675]
533.17	0.2	3505627	3505866	BlankScreen	ANTI	88	4	False	red	460	[405 885 405 675]	[1035 1515  405  675]
533.409	1.0	3505866	3506866	ELCue	ANTI	88	4	False	red	460	[405 885 405 675]	[1035 1515  405  675]
534.819	6.0	3507276	3513301	ShowFixation	ANTI	89	4	False	red	180	[1035 1515  405  675]	[405 885 405 675]
540.844	0.2	3513301	3513541	BlankScreen	ANTI	89	4	False	red	180	[1035 1515  405  675]	[405 885 405 675]
541.084	1.0	3513541	3514541	ELCue	ANTI	89	4	False	red	180	[1035 1515  405  675]	[405 885 405 675]
542.492	2.0	3514949	3516975	ShowFixation	VGS	90	4	False	lime	40	[ 90 570 405 675]	[1350 1830  405  675]
544.518	0.2	3516975	3517211	BlankScreen	VGS	90	4	False	lime	40	[ 90 570 405 675]	[1350 1830  405  675]
544.754	1.0	3517211	3518211	ELCue	VGS	90	4	False	lime	40	[ 90 570 405 675]	[1350 1830  405  675]
546.142	6.0	3518599	3524629	ShowFixation	VGS	91	4	False	lime	460	[1035 1515  405  675]	[405 885 405 675]
552.172	0.2	3524629	3524868	BlankScreen	VGS	91	4	False	lime	460	[1035 1515  405  675]	[405 885 405 675]
552.411	1.0	3524868	3525868	ELCue	VGS	91	4	False	lime	460	[1035 1515  405  675]	[405 885 405 675]
553.821	6.0	3526278	3532303	ShowFixation	ANTI	92	4	False	red	600	[ 90 570 405 675]	[1350 1830  405  675]
559.846	0.2	3532303	3532543	BlankScreen	ANTI	92	4	False	red	600	[ 90 570 405 675]	[1350 1830  405  675]
560.086	1.0	3532543	3533543	ELCue	ANTI	92	4	False	red	600	[ 90 570 405 675]	[1350 1830  405  675]
561.488	2.0	3533945	3535978	ShowFixation	VGS	93	4	False	lime	180	[405 885 405 675]	[1035 1515  405  675]
563.521	0.2	3535978	3536213	BlankScreen	VGS	93	4	False	lime	180	[405 885 405 675]	[1035 1515  405  675]
563.756	1.0	3536213	3537213	ELCue	VGS	93	4	False	lime	180	[405 885 405 675]	[1035 1515  405  675]
565.164	6.0	3537621	3543648	ShowFixation	ANTI	94	4	False	red	180	[1035 1515  405  675]	[405 885 405 675]
571.191	0.2	3543648	3543887	BlankScreen	ANTI	94	4	False	red	180	[1035 1515  405  675]	[405 885 405 675]
571.43	1.0	3543887	3544887	ELCue	ANTI	94	4	False	red	180	[1035 1515  405  675]	[405 885 405 675]
572.841	2.0	3545298	3547339	ShowFixation	VGS	95	4	False	lime	460	[1035 1515  405  675]	[405 885 405 675]
574.882	0.2	3547339	3547574	BlankScreen	VGS	95	4	False	lime	460	[1035 1515  405  675]	[405 885 405 675]
575.117	1.0	3547574	3548574	ELCue	VGS	95	4	False	lime	460	[1035 1515  405  675]	[405 885 405 675]
576.512	2.0	3548969	3551009	ShowFixation	ANTI	96	4	False	red	600	[ 90 570 405 675]	[1350 1830  405  675]
578.552	0.2	3551009	3551244	BlankScreen	ANTI	96	4	False	red	600	[ 90 570 405 675]	[1350 1830  405  675]
578.787	1.0	3551244	3552244	ELCue	ANTI	96	4	False	red	600	[ 90 570 405 675]	[1350 1830  405  675]
580.197	6.0	3552654	3558679	ShowFixation	VGS	97	4	False	lime	180	[405 885 405 675]	[1035 1515  405  675]
586.222	0.2	3558679	3558919	BlankScreen	VGS	97	4	False	lime	180	[405 885 405 675]	[1035 1515  405  675]
586.462	1.0	3558919	3559919	ELCue	VGS	97	4	False	lime	180	[405 885 405 675]	[1035 1515  405  675]
587.872	2.0	3560329	3562353	ShowFixation	VGS	98	4	False	lime	180	[405 885 405 675]	[1035 1515  405  675]
589.896	0.2	3562353	3562589	BlankScreen	VGS	98	4	False	lime	180	[405 885 405 675]	[1035 1515  405  675]
590.132	1.0	3562589	3563589	ELCue	VGS	98	4	False	lime	180	[405 885 405 675]	[1035 1515  405  675]
591.542	2.0	3563999	3566024	ShowFixation	ANTI	99	4	False	red	600	[ 90 570 405 675]	[1350 1830  405  675]
593.567	0.2	3566024	3566259	BlankScreen	ANTI	99	4	False	red	600	[ 90 570 405 675]	[1350 1830  405  675]
593.802	1.0	3566259	3567259	ELCue	ANTI	99	4	False	red	600	[ 90 570 405 675]	[1350 1830  405  675]
595.206	6.0	3567663	3573694	ShowFixation	VGS	100	4	False	lime	600	[1350 1830  405  675]	[ 90 570 405 675]
601.237	0.2	3573694	3573933	BlankScreen	VGS	100	4	False	lime	600	[1350 1830  405  675]	[ 90 570 405 675]
601.476	1.0	3573933	3574933	ELCue	VGS	100	4	False	lime	600	[1350 1830  405  675]	[ 90 570 405 675]
602.888	6.0	3575345	3581385	ShowFixation	ANTI	101	4	False	red	600	[ 90 570 405 675]	[1350 1830  405  675]
608.928	0.2	3581385	3581624	BlankScreen	ANTI	101	4	False	red	600	[ 90 570 405 675]	[1350 1830  405  675]
609.168	1.0	3581625	3582625	ELCue	ANTI	101	4	False	red	600	[ 90 570 405 675]	[1350 1830  405  675]
610.576	6.0	3583033	3589060	ShowFixation	ANTI	102	4	False	red	460	[405 885 405 675]	[1035 1515  405  675]
616.603	0.2	3589060	3589299	BlankScreen	ANTI	102	4	False	red	460	[405 885 405 675]	[1035 1515  405  675]
616.842	1.0	3589299	3590299	ELCue	ANTI	102	4	False	red	460	[405 885 405 675]	[1035 1515  405  675]
618.253	2.0	3590710	3592751	ShowFixation	ANTI	103	4	False	red	40	[1350 1830  405  675]	[ 90 570 405 675]
620.294	0.2	3592751	3592986	BlankScreen	ANTI	103	4	False	red	40	[1350 1830  405  675]	[ 90 570 405 675]
620.529	1.0	3592986	3593986	ELCue	ANTI	103	4	False	red	40	[1350 1830  405  675]	[ 90 570 405 675]
621.94	6.0	3594397	3600438	ShowFixation	VGS	104	4	False	lime	40	[ 90 570 405 675]	[1350 1830  405  675]
627.981	0.2	3600438	3600677	BlankScreen	VGS	104	4	False	lime	40	[ 90 570 405 675]	[1350 1830  405  675]
628.22	1.0	3600677	3601677	ELCue	VGS	104	4	False	lime	40	[ 90 570 405 675]	[1350 1830  405  675]
629.629	6.0	3602086	3608112	ShowFixation	VGS	105	4	False	lime	180	[405 885 405 675]	[1035 1515  405  675]
635.655	0.2	3608112	3608352	BlankScreen	VGS	105	4	False	lime	180	[405 885 405 675]	[1035 1515  405  675]
635.895	1.0	3608352	3609352	ELCue	VGS	105	4	False	lime	180	[405 885 405 675]	[1035 1515  405  675]
637.305	2.0	3609762	3611803	ShowFixation	VGS	106	4	False	lime	600	[1350 1830  405  675]	[ 90 570 405 675]
639.346	0.2	3611803	3612039	BlankScreen	VGS	106	4	False	lime	600	[1350 1830  405  675]	[ 90 570 405 675]
639.582	1.0	3612039	3613039	ELCue	VGS	106	4	False	lime	600	[1350 1830  405  675]	[ 90 570 405 675]
640.985	2.0	3613442	3615473	ShowFixation	ANTI	107	4	False	red	40	[1350 1830  405  675]	[ 90 570 405 675]
643.016	0.2	3615473	3615709	BlankScreen	ANTI	107	4	False	red	40	[1350 1830  405  675]	[ 90 570 405 675]
643.252	1.0	3615709	3616709	ELCue	ANTI	107	4	False	red	40	[1350 1830  405  675]	[ 90 570 405 675]
644.657	2.0	3617114	3619144	ShowFixation	ANTI	108	4	False	red	180	[1035 1515  405  675]	[405 885 405 675]
646.687	0.2	3619144	3619379	BlankScreen	ANTI	108	4	False	red	180	[1035 1515  405  675]	[405 885 405 675]
646.922	1.0	3619379	3620379	ELCue	ANTI	108	4	False	red	180	[1035 1515  405  675]	[405 885 405 675]
648.331	6.0	3620788	3626814	ShowFixation	VGS	109	4	False	lime	40	[ 90 570 405 675]	[1350 1830  405  675]
654.357	0.2	3626814	3627053	BlankScreen	VGS	109	4	False	lime	40	[ 90 570 405 675]	[1350 1830  405  675]
654.596	1.0	3627053	3628053	ELCue	VGS	109	4	False	lime	40	[ 90 570 405 675]	[1350 1830  405  675]
655.987	6.0	3628444	3634472	ShowFixation	ANTI	110	4	False	red	40	[1350 1830  405  675]	[ 90 570 405 675]
662.015	0.2	3634472	3634711	BlankScreen	ANTI	110	4	False	red	40	[1350 1830  405  675]	[ 90 570 405 675]
662.254	1.0	3634711	3635711	ELCue	ANTI	110	4	False	red	40	[1350 1830  405  675]	[ 90 570 405 675]
663.663	2.0	3636120	3638146	ShowFixation	VGS	111	4	False	lime	600	[1350 1830  405  675]	[ 90 570 405 675]
665.689	0.2	3638146	3638381	BlankScreen	VGS	111	4	False	lime	600	[1350 1830  405  675]	[ 90 570 405 675]
665.924	1.0	3638381	3639381	ELCue	VGS	111	4	False	lime	600	[1350 1830  405  675]	[ 90 570 405 675]
667.335	6.0	3639792	3645833	ShowFixation	VGS	112	4	False	lime	460	[1035 1515  405  675]	[405 885 405 675]
673.376	0.2	3645833	3646072	BlankScreen	VGS	112	4	False	lime	460	[1035 1515  405  675]	[405 885 405 675]
673.615	1.0	3646072	3647072	ELCue	VGS	112	4	False	lime	460	[1035 1515  405  675]	[405 885 405 675]
